"subjectId","expId","room_setup","img","stimulus","is_old","repeated","is_mismatch","trials.thisTrialN","recognition_response.keys","recognition_response.rt","trial_type","correct.recog","old_new_rsp"
"MPE101","imm","1","/isoluminant_stim/main_task/animate/animate-tiger02.png","/isoluminant_stim/main_task/animate/animate-tiger02.png",FALSE,FALSE,FALSE,0,1,1.02909385000021,FALSE,FALSE,"old"
"MPE101","imm","1","/isoluminant_stim/main_task/inanimate/inanimate-wafflemaker.png","/isoluminant_stim/main_task/inanimate/inanimate-wafflemaker.png",TRUE,FALSE,TRUE,1,1,1.16441930099973,TRUE,TRUE,"old"
"MPE101","imm","1","/isoluminant_stim/main_task/animate/animate-fish-angelfish.png","/isoluminant_stim/main_task/animate/animate-fish-angelfish.png",FALSE,FALSE,FALSE,3,2,0.973731237998436,FALSE,TRUE,"new"
"MPE101","imm","1","/isoluminant_stim/preexposure/soap02a.png","/isoluminant_stim/preexposure/soap02a.png",TRUE,FALSE,FALSE,4,1,1.27927681499932,TRUE,TRUE,"old"
"MPE101","imm","1","/isoluminant_stim/main_task/animate/animate-grasshopper.png","/isoluminant_stim/main_task/animate/animate-grasshopper.png",TRUE,FALSE,TRUE,5,2,1.10595766699953,TRUE,FALSE,"new"
"MPE101","imm","1","/isoluminant_stim/main_task/inanimate/inanimate-kiwi03.png","/isoluminant_stim/main_task/inanimate/inanimate-kiwi03.png",FALSE,FALSE,FALSE,6,2,0.863188990999333,FALSE,TRUE,"new"
"MPE101","imm","1","/isoluminant_stim/preexposure/rainboot.png","/isoluminant_stim/preexposure/rainboot.png",TRUE,FALSE,FALSE,7,1,1.31423015399923,TRUE,TRUE,"old"
"MPE101","imm","1","/isoluminant_stim/main_task/animate/animate-rooster.png","/isoluminant_stim/main_task/animate/animate-rooster.png",FALSE,FALSE,FALSE,8,2,0.943190817000868,FALSE,TRUE,"new"
"MPE101","imm","1","/isoluminant_stim/preexposure/litterbox.png","/isoluminant_stim/preexposure/litterbox.png",TRUE,FALSE,FALSE,9,2,0.947377219001282,TRUE,FALSE,"new"
"MPE101","imm","1","/isoluminant_stim/main_task/animate/animate-rhinoceros.png","/isoluminant_stim/main_task/animate/animate-rhinoceros.png",TRUE,FALSE,TRUE,10,1,0.716140729000472,TRUE,TRUE,"old"
"MPE101","imm","1","/isoluminant_stim/main_task/inanimate/inanimate-thumbtack02b.png","/isoluminant_stim/main_task/inanimate/inanimate-thumbtack02b.png",TRUE,FALSE,TRUE,11,1,1.03741400599938,TRUE,TRUE,"old"
"MPE101","imm","1","/isoluminant_stim/main_task/animate/animate-owl.png","/isoluminant_stim/main_task/animate/animate-owl.png",FALSE,FALSE,FALSE,12,2,0.877000423999561,FALSE,TRUE,"new"
"MPE101","imm","1","/isoluminant_stim/main_task/inanimate/inanimate-calendar.png","/isoluminant_stim/main_task/inanimate/inanimate-calendar.png",TRUE,FALSE,TRUE,13,1,0.857019057000798,TRUE,TRUE,"old"
"MPE101","imm","1","/isoluminant_stim/main_task/animate/animate-bumble bee.png","/isoluminant_stim/main_task/animate/animate-bumble bee.png",TRUE,FALSE,TRUE,14,1,1.08753792300013,TRUE,TRUE,"old"
"MPE101","imm","1","/isoluminant_stim/main_task/inanimate/inanimate-firehydrant.png","/isoluminant_stim/main_task/inanimate/inanimate-firehydrant.png",TRUE,FALSE,TRUE,15,1,0.931771977000608,TRUE,TRUE,"old"
"MPE101","imm","1","/isoluminant_stim/main_task/animate/animate-chimpanzee.png","/isoluminant_stim/main_task/animate/animate-chimpanzee.png",FALSE,FALSE,FALSE,16,1,0.938488588000837,FALSE,FALSE,"old"
"MPE101","imm","1","/isoluminant_stim/main_task/inanimate/inanimate-chiliflake.png","/isoluminant_stim/main_task/inanimate/inanimate-chiliflake.png",FALSE,FALSE,FALSE,17,2,0.980333835001147,FALSE,TRUE,"new"
"MPE101","imm","1","/isoluminant_stim/main_task/inanimate/inanimate-bowtie.png","/isoluminant_stim/main_task/inanimate/inanimate-bowtie.png",FALSE,FALSE,FALSE,18,2,0.864469447000374,FALSE,TRUE,"new"
"MPE101","imm","1","/isoluminant_stim/main_task/animate/animate-aardvark.png","/isoluminant_stim/main_task/animate/animate-aardvark.png",TRUE,FALSE,TRUE,19,2,0.921137694000208,TRUE,FALSE,"new"
"MPE101","imm","1","/isoluminant_stim/main_task/animate/animate-tern.png","/isoluminant_stim/main_task/animate/animate-tern.png",FALSE,FALSE,FALSE,20,2,0.995832307000455,FALSE,TRUE,"new"
"MPE101","imm","1","/isoluminant_stim/preexposure/toyanimal01.png","/isoluminant_stim/preexposure/toyanimal01.png",TRUE,FALSE,FALSE,21,2,1.07754653499978,TRUE,FALSE,"new"
"MPE101","imm","1","/isoluminant_stim/main_task/animate/animate-whale.png","/isoluminant_stim/main_task/animate/animate-whale.png",FALSE,FALSE,FALSE,22,2,1.37124655200023,FALSE,TRUE,"new"
"MPE101","imm","1","/isoluminant_stim/main_task/animate/animate-fly.png","/isoluminant_stim/main_task/animate/animate-fly.png",TRUE,FALSE,TRUE,23,1,0.883052880999458,TRUE,TRUE,"old"
"MPE101","imm","1","/isoluminant_stim/main_task/inanimate/inanimate-volleyball.png","/isoluminant_stim/main_task/inanimate/inanimate-volleyball.png",FALSE,FALSE,FALSE,24,2,0.834900646999813,FALSE,TRUE,"new"
"MPE101","imm","1","/isoluminant_stim/preexposure/moon.png","/isoluminant_stim/preexposure/moon.png",TRUE,FALSE,FALSE,25,1,1.04587469900071,TRUE,TRUE,"old"
"MPE101","imm","1","/isoluminant_stim/main_task/animate/animate-siamesecat.png","/isoluminant_stim/main_task/animate/animate-siamesecat.png",TRUE,FALSE,TRUE,26,1,0.942151983999793,TRUE,TRUE,"old"
"MPE101","imm","1","/isoluminant_stim/main_task/inanimate/inanimate-bag.png","/isoluminant_stim/main_task/inanimate/inanimate-bag.png",TRUE,FALSE,TRUE,27,1,0.84700161499859,TRUE,TRUE,"old"
"MPE101","imm","1","/isoluminant_stim/main_task/inanimate/inanimate-clock01b.png","/isoluminant_stim/main_task/inanimate/inanimate-clock01b.png",FALSE,FALSE,FALSE,28,2,0.818973378998635,FALSE,TRUE,"new"
"MPE101","imm","1","/isoluminant_stim/main_task/animate/animate-cormorant.png","/isoluminant_stim/main_task/animate/animate-cormorant.png",FALSE,FALSE,FALSE,29,2,1.10051819499859,FALSE,TRUE,"new"
"MPE101","imm","1","/isoluminant_stim/main_task/animate/animate-zebra.png","/isoluminant_stim/main_task/animate/animate-zebra.png",FALSE,FALSE,FALSE,30,2,0.958128845000829,FALSE,TRUE,"new"
"MPE101","imm","1","/isoluminant_stim/main_task/inanimate/inanimate-flipflop01b.png","/isoluminant_stim/main_task/inanimate/inanimate-flipflop01b.png",FALSE,FALSE,FALSE,31,2,1.08968815200024,FALSE,TRUE,"new"
"MPE101","imm","1","/isoluminant_stim/main_task/animate/animate-walrus1.png","/isoluminant_stim/main_task/animate/animate-walrus1.png",TRUE,FALSE,TRUE,32,1,0.777241575999142,TRUE,TRUE,"old"
"MPE101","imm","1","/isoluminant_stim/main_task/inanimate/inanimate-garlic01a.png","/isoluminant_stim/main_task/inanimate/inanimate-garlic01a.png",TRUE,FALSE,TRUE,33,1,0.879083632999027,TRUE,TRUE,"old"
"MPE101","imm","1","/isoluminant_stim/main_task/inanimate/inanimate-avocado.png","/isoluminant_stim/main_task/inanimate/inanimate-avocado.png",FALSE,FALSE,FALSE,34,2,1.1542524230008,FALSE,TRUE,"new"
"MPE101","imm","1","/isoluminant_stim/main_task/inanimate/inanimate-accordion01.png","/isoluminant_stim/main_task/inanimate/inanimate-accordion01.png",FALSE,FALSE,FALSE,35,2,0.943115351001325,FALSE,TRUE,"new"
"MPE101","imm","1","/isoluminant_stim/preexposure/tarantula.png","/isoluminant_stim/preexposure/tarantula.png",TRUE,FALSE,FALSE,37,2,0.869955113001197,TRUE,FALSE,"new"
"MPE101","imm","1","/isoluminant_stim/main_task/animate/animate-swallow.png","/isoluminant_stim/main_task/animate/animate-swallow.png",FALSE,FALSE,FALSE,38,2,0.897925502000362,FALSE,TRUE,"new"
"MPE101","imm","1","/isoluminant_stim/main_task/animate/animate-sapsucker.png","/isoluminant_stim/main_task/animate/animate-sapsucker.png",FALSE,FALSE,FALSE,39,2,0.964376437999817,FALSE,TRUE,"new"
"MPE101","imm","1","/isoluminant_stim/main_task/animate/animate-cockroach.png","/isoluminant_stim/main_task/animate/animate-cockroach.png",TRUE,FALSE,TRUE,40,1,0.957235535999644,TRUE,TRUE,"old"
"MPE101","imm","1","/isoluminant_stim/main_task/animate/animate-hoofed-reindeer.png","/isoluminant_stim/main_task/animate/animate-hoofed-reindeer.png",FALSE,FALSE,FALSE,41,2,0.922188636999636,FALSE,TRUE,"new"
"MPE101","imm","1","/isoluminant_stim/main_task/inanimate/inanimate-doorknob.png","/isoluminant_stim/main_task/inanimate/inanimate-doorknob.png",FALSE,FALSE,FALSE,42,2,0.806230070000311,FALSE,TRUE,"new"
"MPE101","imm","1","/isoluminant_stim/main_task/inanimate/inanimate-electricrazor.png","/isoluminant_stim/main_task/inanimate/inanimate-electricrazor.png",TRUE,FALSE,TRUE,43,1,1.01432419699995,TRUE,TRUE,"old"
"MPE101","imm","1","/isoluminant_stim/main_task/animate/animate-duck01.png","/isoluminant_stim/main_task/animate/animate-duck01.png",TRUE,FALSE,TRUE,44,2,0.794594046999919,TRUE,FALSE,"new"
"MPE101","imm","1","/isoluminant_stim/preexposure/pot01.png","/isoluminant_stim/preexposure/pot01.png",TRUE,FALSE,FALSE,45,2,0.903177710000818,TRUE,FALSE,"new"
"MPE101","imm","1","/isoluminant_stim/main_task/inanimate/inanimate-bikehelmet.png","/isoluminant_stim/main_task/inanimate/inanimate-bikehelmet.png",FALSE,FALSE,FALSE,46,2,0.983349023999836,FALSE,TRUE,"new"
"MPE101","imm","1","/isoluminant_stim/main_task/inanimate/inanimate-cabbage.png","/isoluminant_stim/main_task/inanimate/inanimate-cabbage.png",FALSE,FALSE,FALSE,47,2,1.4345851979997,FALSE,TRUE,"new"
"MPE101","imm","1","/isoluminant_stim/main_task/inanimate/inanimate-helmet.png","/isoluminant_stim/main_task/inanimate/inanimate-helmet.png",TRUE,FALSE,TRUE,48,1,0.893759849999697,TRUE,TRUE,"old"
"MPE101","imm","1","/isoluminant_stim/preexposure/footballhelmet.png","/isoluminant_stim/preexposure/footballhelmet.png",TRUE,FALSE,FALSE,49,2,0.809358970000176,TRUE,FALSE,"new"
"MPE101","imm","1","/isoluminant_stim/preexposure/oyster02.png","/isoluminant_stim/preexposure/oyster02.png",TRUE,FALSE,FALSE,50,1,1.26603635799984,TRUE,TRUE,"old"
"MPE101","imm","1","/isoluminant_stim/main_task/inanimate/inanimate-firealarm.png","/isoluminant_stim/main_task/inanimate/inanimate-firealarm.png",FALSE,FALSE,FALSE,51,2,1.2366010400001,FALSE,TRUE,"new"
"MPE101","imm","1","/isoluminant_stim/main_task/inanimate/inanimate-bowlingball.png","/isoluminant_stim/main_task/inanimate/inanimate-bowlingball.png",FALSE,FALSE,FALSE,52,2,1.10803035500066,FALSE,TRUE,"new"
"MPE101","imm","1","/isoluminant_stim/main_task/animate/animate-manatee.png","/isoluminant_stim/main_task/animate/animate-manatee.png",TRUE,FALSE,TRUE,53,1,0.958443931000147,TRUE,TRUE,"old"
"MPE101","imm","1","/isoluminant_stim/main_task/animate/animate-spider.png","/isoluminant_stim/main_task/animate/animate-spider.png",TRUE,FALSE,TRUE,54,1,1.02722843699848,TRUE,TRUE,"old"
"MPE101","imm","1","/isoluminant_stim/main_task/animate/animate-orangutan.png","/isoluminant_stim/main_task/animate/animate-orangutan.png",TRUE,FALSE,TRUE,55,1,0.993651733000661,TRUE,TRUE,"old"
"MPE101","imm","1","/isoluminant_stim/main_task/animate/animate-tortoise01.png","/isoluminant_stim/main_task/animate/animate-tortoise01.png",FALSE,FALSE,FALSE,56,2,1.31497222600046,FALSE,TRUE,"new"
"MPE101","imm","1","/isoluminant_stim/main_task/inanimate/inanimate-bowlofcereal.png","/isoluminant_stim/main_task/inanimate/inanimate-bowlofcereal.png",FALSE,FALSE,FALSE,57,2,0.9805502170002,FALSE,TRUE,"new"
"MPE101","imm","1","/isoluminant_stim/main_task/animate/animate-dromedary.png","/isoluminant_stim/main_task/animate/animate-dromedary.png",TRUE,FALSE,TRUE,58,1,0.948751133999394,TRUE,TRUE,"old"
"MPE101","imm","1","/isoluminant_stim/main_task/inanimate/inanimate-wateringcan.png","/isoluminant_stim/main_task/inanimate/inanimate-wateringcan.png",FALSE,FALSE,FALSE,59,2,0.84974089699972,FALSE,TRUE,"new"
"MPE101","imm","1","/isoluminant_stim/main_task/inanimate/inanimate-cauliflower01.png","/isoluminant_stim/main_task/inanimate/inanimate-cauliflower01.png",FALSE,FALSE,FALSE,60,2,1.23654827999962,FALSE,TRUE,"new"
"MPE101","imm","1","/isoluminant_stim/main_task/animate/animate-antelope.png","/isoluminant_stim/main_task/animate/animate-antelope.png",FALSE,FALSE,FALSE,61,2,1.09987900899978,FALSE,TRUE,"new"
"MPE101","imm","1","/isoluminant_stim/main_task/inanimate/inanimate-apple01.png","/isoluminant_stim/main_task/inanimate/inanimate-apple01.png",TRUE,FALSE,TRUE,62,1,0.886440588999903,TRUE,TRUE,"old"
"MPE101","imm","1","/isoluminant_stim/main_task/inanimate/inanimate-watermelon02b.png","/isoluminant_stim/main_task/inanimate/inanimate-watermelon02b.png",FALSE,FALSE,FALSE,63,2,0.802264562000346,FALSE,TRUE,"new"
"MPE101","imm","1","/isoluminant_stim/main_task/animate/animate-rat.png","/isoluminant_stim/main_task/animate/animate-rat.png",TRUE,FALSE,TRUE,64,1,0.969779042001392,TRUE,TRUE,"old"
"MPE101","imm","1","/isoluminant_stim/main_task/inanimate/inanimate-campfire.png","/isoluminant_stim/main_task/inanimate/inanimate-campfire.png",TRUE,FALSE,TRUE,65,1,0.846068229000593,TRUE,TRUE,"old"
"MPE101","imm","1","/isoluminant_stim/main_task/animate/animate-greathornowl.png","/isoluminant_stim/main_task/animate/animate-greathornowl.png",FALSE,FALSE,FALSE,66,1,1.31028708899976,FALSE,FALSE,"old"
"MPE101","imm","1","/isoluminant_stim/main_task/animate/animate-gorilla.png","/isoluminant_stim/main_task/animate/animate-gorilla.png",TRUE,FALSE,TRUE,67,1,1.04539196199948,TRUE,TRUE,"old"
"MPE101","imm","1","/isoluminant_stim/preexposure/pizza.png","/isoluminant_stim/preexposure/pizza.png",TRUE,FALSE,FALSE,68,2,1.16198830299982,TRUE,FALSE,"new"
"MPE101","imm","1","/isoluminant_stim/main_task/animate/animate-bison.png","/isoluminant_stim/main_task/animate/animate-bison.png",FALSE,FALSE,FALSE,69,2,1.46254042699911,FALSE,TRUE,"new"
"MPE101","imm","1","/isoluminant_stim/main_task/inanimate/inanimate-chest01.png","/isoluminant_stim/main_task/inanimate/inanimate-chest01.png",TRUE,FALSE,TRUE,71,2,1.44765247800024,TRUE,FALSE,"new"
"MPE101","imm","1","/isoluminant_stim/preexposure/motoroilbottle01.png","/isoluminant_stim/preexposure/motoroilbottle01.png",TRUE,FALSE,FALSE,72,2,1.13680223799929,TRUE,FALSE,"new"
"MPE101","imm","1","/isoluminant_stim/main_task/inanimate/inanimate-hose.png","/isoluminant_stim/main_task/inanimate/inanimate-hose.png",TRUE,FALSE,TRUE,73,1,1.05891824100036,TRUE,TRUE,"old"
"MPE101","imm","1","/isoluminant_stim/main_task/animate/animate-camel.png","/isoluminant_stim/main_task/animate/animate-camel.png",TRUE,FALSE,TRUE,74,1,1.28096180299872,TRUE,TRUE,"old"
"MPE101","imm","1","/isoluminant_stim/preexposure/measuringtape01.png","/isoluminant_stim/preexposure/measuringtape01.png",TRUE,FALSE,FALSE,76,1,1.44874048400015,TRUE,TRUE,"old"
"MPE101","imm","1","/isoluminant_stim/main_task/animate/animate-centipede.png","/isoluminant_stim/main_task/animate/animate-centipede.png",FALSE,FALSE,FALSE,77,2,0.995648159998382,FALSE,TRUE,"new"
"MPE101","imm","1","/isoluminant_stim/main_task/animate/animate-mantaray.png","/isoluminant_stim/main_task/animate/animate-mantaray.png",TRUE,FALSE,TRUE,78,2,0.955794321000212,TRUE,FALSE,"new"
"MPE101","imm","1","/isoluminant_stim/preexposure/mask02a.png","/isoluminant_stim/preexposure/mask02a.png",TRUE,FALSE,FALSE,79,1,1.55828410899994,TRUE,TRUE,"old"
"MPE101","imm","1","/isoluminant_stim/main_task/animate/animate-lynx01.png","/isoluminant_stim/main_task/animate/animate-lynx01.png",FALSE,FALSE,FALSE,81,2,1.12092274499992,FALSE,TRUE,"new"
"MPE101","imm","1","/isoluminant_stim/main_task/inanimate/inanimate-pingpongpaddle01a.png","/isoluminant_stim/main_task/inanimate/inanimate-pingpongpaddle01a.png",TRUE,FALSE,TRUE,82,1,1.2217930859988,TRUE,TRUE,"old"
"MPE101","imm","1","/isoluminant_stim/preexposure/cocktailshrimp02.png","/isoluminant_stim/preexposure/cocktailshrimp02.png",TRUE,FALSE,FALSE,83,2,1.34354824099864,TRUE,FALSE,"new"
"MPE101","imm","1","/isoluminant_stim/main_task/inanimate/inanimate-palmier.png","/isoluminant_stim/main_task/inanimate/inanimate-palmier.png",FALSE,FALSE,FALSE,84,2,1.30466301200067,FALSE,TRUE,"new"
"MPE101","imm","1","/isoluminant_stim/main_task/animate/animate-swan.png","/isoluminant_stim/main_task/animate/animate-swan.png",TRUE,FALSE,TRUE,85,1,0.957144336000056,TRUE,TRUE,"old"
"MPE101","imm","1","/isoluminant_stim/main_task/animate/animate-barnowl.png","/isoluminant_stim/main_task/animate/animate-barnowl.png",FALSE,FALSE,FALSE,86,1,1.18354665900188,FALSE,FALSE,"old"
"MPE101","imm","1","/isoluminant_stim/main_task/animate/animate-hamster.png","/isoluminant_stim/main_task/animate/animate-hamster.png",TRUE,FALSE,TRUE,87,2,1.17984193600205,TRUE,FALSE,"new"
"MPE101","imm","1","/isoluminant_stim/preexposure/cantaloupe02.png","/isoluminant_stim/preexposure/cantaloupe02.png",TRUE,FALSE,FALSE,88,2,1.38892501100054,TRUE,FALSE,"new"
"MPE101","imm","1","/isoluminant_stim/main_task/inanimate/inanimate-tennisball01b.png","/isoluminant_stim/main_task/inanimate/inanimate-tennisball01b.png",FALSE,FALSE,FALSE,89,2,0.939525496996794,FALSE,TRUE,"new"
"MPE101","imm","1","/isoluminant_stim/preexposure/toyanimal04.png","/isoluminant_stim/preexposure/toyanimal04.png",TRUE,FALSE,FALSE,90,1,1.17060672699881,TRUE,TRUE,"old"
"MPE101","imm","1","/isoluminant_stim/main_task/inanimate/inanimate-basketball01.png","/isoluminant_stim/main_task/inanimate/inanimate-basketball01.png",FALSE,FALSE,FALSE,91,2,1.66971156,FALSE,TRUE,"new"
"MPE101","imm","1","/isoluminant_stim/main_task/inanimate/inanimate-boxingglove01.png","/isoluminant_stim/main_task/inanimate/inanimate-boxingglove01.png",TRUE,FALSE,TRUE,93,1,0.842733319001127,TRUE,TRUE,"old"
"MPE101","imm","1","/isoluminant_stim/main_task/animate/animate-saintbernard.png","/isoluminant_stim/main_task/animate/animate-saintbernard.png",FALSE,FALSE,FALSE,94,2,0.958004140000412,FALSE,TRUE,"new"
"MPE101","imm","1","/isoluminant_stim/main_task/animate/animate-seagull.png","/isoluminant_stim/main_task/animate/animate-seagull.png",TRUE,FALSE,TRUE,95,2,1.23797807799929,TRUE,FALSE,"new"
"MPE101","imm","1","/isoluminant_stim/main_task/inanimate/inanimate-peach03.png","/isoluminant_stim/main_task/inanimate/inanimate-peach03.png",FALSE,FALSE,FALSE,96,2,1.2181825789994,FALSE,TRUE,"new"
"MPE101","imm","1","/isoluminant_stim/main_task/animate/animate-cockatoo.png","/isoluminant_stim/main_task/animate/animate-cockatoo.png",TRUE,FALSE,TRUE,97,1,0.942043243998342,TRUE,TRUE,"old"
"MPE101","imm","1","/isoluminant_stim/main_task/inanimate/inanimate-cannon.png","/isoluminant_stim/main_task/inanimate/inanimate-cannon.png",TRUE,FALSE,TRUE,99,1,0.971412447997864,TRUE,TRUE,"old"
"MPE101","imm","1","/isoluminant_stim/main_task/animate/animate-duck.png","/isoluminant_stim/main_task/animate/animate-duck.png",FALSE,FALSE,FALSE,100,2,1.58770978300163,FALSE,TRUE,"new"
"MPE101","imm","1","/isoluminant_stim/preexposure/pokerchips.png","/isoluminant_stim/preexposure/pokerchips.png",TRUE,FALSE,FALSE,101,2,1.05816854099976,TRUE,FALSE,"new"
"MPE101","imm","1","/isoluminant_stim/main_task/inanimate/inanimate-jeans01.png","/isoluminant_stim/main_task/inanimate/inanimate-jeans01.png",TRUE,FALSE,TRUE,102,2,1.03132885000014,TRUE,FALSE,"new"
"MPE101","imm","1","/isoluminant_stim/main_task/inanimate/inanimate-boxtrailer.png","/isoluminant_stim/main_task/inanimate/inanimate-boxtrailer.png",FALSE,FALSE,FALSE,103,2,0.836465144999238,FALSE,TRUE,"new"
"MPE101","imm","1","/isoluminant_stim/main_task/inanimate/inanimate-laundrybasket01a.png","/isoluminant_stim/main_task/inanimate/inanimate-laundrybasket01a.png",TRUE,FALSE,TRUE,104,1,0.880202438002016,TRUE,TRUE,"old"
"MPE101","imm","1","/isoluminant_stim/main_task/inanimate/inanimate-binder03a.png","/isoluminant_stim/main_task/inanimate/inanimate-binder03a.png",FALSE,FALSE,FALSE,105,2,1.03668646900041,FALSE,TRUE,"new"
"MPE101","imm","1","/isoluminant_stim/preexposure/pecan03b.png","/isoluminant_stim/preexposure/pecan03b.png",TRUE,FALSE,FALSE,106,1,0.80875330300114,TRUE,TRUE,"old"
"MPE101","imm","1","/isoluminant_stim/main_task/inanimate/inanimate-cake.png","/isoluminant_stim/main_task/inanimate/inanimate-cake.png",FALSE,FALSE,FALSE,107,2,0.83696665000025,FALSE,TRUE,"new"
"MPE101","imm","1","/isoluminant_stim/main_task/inanimate/inanimate-fortunecookie.png","/isoluminant_stim/main_task/inanimate/inanimate-fortunecookie.png",TRUE,FALSE,TRUE,108,1,1.04532862300039,TRUE,TRUE,"old"
"MPE101","imm","1","/isoluminant_stim/main_task/animate/animate-vulture.png","/isoluminant_stim/main_task/animate/animate-vulture.png",TRUE,FALSE,TRUE,109,1,1.56622602800053,TRUE,TRUE,"old"
"MPE101","imm","1","/isoluminant_stim/main_task/inanimate/inanimate-doormat.png","/isoluminant_stim/main_task/inanimate/inanimate-doormat.png",TRUE,FALSE,TRUE,110,1,0.830899435000902,TRUE,TRUE,"old"
"MPE101","imm","1","/isoluminant_stim/main_task/inanimate/inanimate-frisbee.png","/isoluminant_stim/main_task/inanimate/inanimate-frisbee.png",TRUE,FALSE,TRUE,111,1,0.942492302998289,TRUE,TRUE,"old"
"MPE101","imm","1","/isoluminant_stim/main_task/animate/animate-fish-goldfish.png","/isoluminant_stim/main_task/animate/animate-fish-goldfish.png",FALSE,FALSE,FALSE,112,2,0.891187937002542,FALSE,TRUE,"new"
"MPE101","imm","1","/isoluminant_stim/main_task/inanimate/inanimate-mushroom01.png","/isoluminant_stim/main_task/inanimate/inanimate-mushroom01.png",TRUE,FALSE,TRUE,113,1,1.38429486899986,TRUE,TRUE,"old"
"MPE101","imm","1","/isoluminant_stim/main_task/animate/animate-toucan.png","/isoluminant_stim/main_task/animate/animate-toucan.png",FALSE,FALSE,FALSE,114,2,1.47893197900339,FALSE,TRUE,"new"
"MPE101","imm","1","/isoluminant_stim/preexposure/makiroll.png","/isoluminant_stim/preexposure/makiroll.png",TRUE,FALSE,FALSE,115,2,0.867169185999956,TRUE,FALSE,"new"
"MPE101","imm","1","/isoluminant_stim/main_task/animate/animate-turtle.png","/isoluminant_stim/main_task/animate/animate-turtle.png",TRUE,FALSE,TRUE,116,1,0.903380132996972,TRUE,TRUE,"old"
"MPE101","imm","1","/isoluminant_stim/main_task/inanimate/inanimate-onion.png","/isoluminant_stim/main_task/inanimate/inanimate-onion.png",FALSE,FALSE,FALSE,117,2,0.914335443001619,FALSE,TRUE,"new"
"MPE101","imm","1","/isoluminant_stim/main_task/inanimate/inanimate-baseballglove.png","/isoluminant_stim/main_task/inanimate/inanimate-baseballglove.png",TRUE,FALSE,TRUE,118,1,0.905511531000229,TRUE,TRUE,"old"
"MPE101","imm","1","/isoluminant_stim/main_task/animate/animate-frog2.png","/isoluminant_stim/main_task/animate/animate-frog2.png",TRUE,FALSE,TRUE,119,1,1.02498767499856,TRUE,TRUE,"old"
"MPE101","imm","1","/isoluminant_stim/main_task/inanimate/inanimate-exitsign.png","/isoluminant_stim/main_task/inanimate/inanimate-exitsign.png",TRUE,FALSE,TRUE,121,1,1.04731000399988,TRUE,TRUE,"old"
"MPE101","imm","1","/isoluminant_stim/main_task/inanimate/inanimate-icebucket.png","/isoluminant_stim/main_task/inanimate/inanimate-icebucket.png",TRUE,FALSE,TRUE,122,1,0.989079723000032,TRUE,TRUE,"old"
"MPE101","imm","1","/isoluminant_stim/main_task/inanimate/inanimate-romainelettuce01a.png","/isoluminant_stim/main_task/inanimate/inanimate-romainelettuce01a.png",FALSE,FALSE,FALSE,123,1,1.3918933749992,FALSE,FALSE,"old"
"MPE101","imm","1","/isoluminant_stim/main_task/animate/animate-jellyfish.png","/isoluminant_stim/main_task/animate/animate-jellyfish.png",FALSE,FALSE,FALSE,124,2,0.892214473002241,FALSE,TRUE,"new"
"MPE101","imm","1","/isoluminant_stim/main_task/inanimate/inanimate-donut.png","/isoluminant_stim/main_task/inanimate/inanimate-donut.png",FALSE,FALSE,FALSE,125,1,1.45591040299769,FALSE,FALSE,"old"
"MPE101","imm","1","/isoluminant_stim/main_task/inanimate/inanimate-camera01a.png","/isoluminant_stim/main_task/inanimate/inanimate-camera01a.png",TRUE,FALSE,TRUE,126,1,0.997131944001012,TRUE,TRUE,"old"
"MPE101","imm","1","/isoluminant_stim/main_task/animate/animate-armadillo.png","/isoluminant_stim/main_task/animate/animate-armadillo.png",FALSE,FALSE,FALSE,127,2,1.10353743000087,FALSE,TRUE,"new"
"MPE101","imm","1","/isoluminant_stim/preexposure/stuffedpuffin.png","/isoluminant_stim/preexposure/stuffedpuffin.png",TRUE,FALSE,FALSE,128,1,1.32218724999984,TRUE,TRUE,"old"
"MPE101","imm","1","/isoluminant_stim/main_task/inanimate/inanimate-icecubetray02a.png","/isoluminant_stim/main_task/inanimate/inanimate-icecubetray02a.png",FALSE,FALSE,FALSE,129,2,1.08129822599949,FALSE,TRUE,"new"
"MPE101","imm","1","/isoluminant_stim/main_task/inanimate/inanimate-buoy.png","/isoluminant_stim/main_task/inanimate/inanimate-buoy.png",FALSE,FALSE,FALSE,130,2,0.855107731000317,FALSE,TRUE,"new"
"MPE101","imm","1","/isoluminant_stim/main_task/animate/animate-hoofed-moose1.png","/isoluminant_stim/main_task/animate/animate-hoofed-moose1.png",TRUE,FALSE,TRUE,131,1,1.11038766899946,TRUE,TRUE,"old"
"MPE101","imm","1","/isoluminant_stim/main_task/inanimate/inanimate-tie01.png","/isoluminant_stim/main_task/inanimate/inanimate-tie01.png",TRUE,FALSE,TRUE,132,1,1.55198105100135,TRUE,TRUE,"old"
"MPE101","imm","1","/isoluminant_stim/main_task/animate/animate-kangaroo.png","/isoluminant_stim/main_task/animate/animate-kangaroo.png",TRUE,FALSE,TRUE,133,1,1.02152514800036,TRUE,TRUE,"old"
"MPE101","imm","1","/isoluminant_stim/main_task/inanimate/inanimate-orange.png","/isoluminant_stim/main_task/inanimate/inanimate-orange.png",FALSE,FALSE,FALSE,134,2,1.00445263299844,FALSE,TRUE,"new"
"MPE101","imm","1","/isoluminant_stim/preexposure/rockinghorse.png","/isoluminant_stim/preexposure/rockinghorse.png",TRUE,FALSE,FALSE,135,2,0.880921749001573,TRUE,FALSE,"new"
"MPE101","imm","1","/isoluminant_stim/main_task/animate/animate-rockbass.png","/isoluminant_stim/main_task/animate/animate-rockbass.png",TRUE,FALSE,TRUE,136,2,1.1123200760012,TRUE,FALSE,"new"
"MPE101","imm","1","/isoluminant_stim/main_task/animate/animate-toad.png","/isoluminant_stim/main_task/animate/animate-toad.png",FALSE,FALSE,FALSE,137,2,1.02643632099716,FALSE,TRUE,"new"
"MPE101","imm","1","/isoluminant_stim/main_task/inanimate/inanimate-weight02a.png","/isoluminant_stim/main_task/inanimate/inanimate-weight02a.png",TRUE,FALSE,TRUE,138,1,0.801135492998583,TRUE,TRUE,"old"
"MPE101","imm","1","/isoluminant_stim/main_task/inanimate/inanimate-backpack01a.png","/isoluminant_stim/main_task/inanimate/inanimate-backpack01a.png",TRUE,FALSE,TRUE,139,1,1.01226564700119,TRUE,TRUE,"old"
"MPE101","imm","1","/isoluminant_stim/main_task/animate/animate-scorpion.png","/isoluminant_stim/main_task/animate/animate-scorpion.png",FALSE,FALSE,FALSE,140,2,0.821150658000988,FALSE,TRUE,"new"
"MPE101","imm","1","/isoluminant_stim/main_task/animate/animate-bird-misc.png","/isoluminant_stim/main_task/animate/animate-bird-misc.png",FALSE,FALSE,FALSE,141,1,1.23516438899969,FALSE,FALSE,"old"
"MPE101","imm","1","/isoluminant_stim/main_task/inanimate/inanimate-boxtruck.png","/isoluminant_stim/main_task/inanimate/inanimate-boxtruck.png",FALSE,FALSE,FALSE,142,2,0.785606619003374,FALSE,TRUE,"new"
"MPE101","imm","1","/isoluminant_stim/preexposure/toyradio01a.png","/isoluminant_stim/preexposure/toyradio01a.png",TRUE,FALSE,FALSE,143,2,0.84245521000048,TRUE,FALSE,"new"
"MPE101","imm","1","/isoluminant_stim/main_task/animate/animate-giraffe.png","/isoluminant_stim/main_task/animate/animate-giraffe.png",TRUE,FALSE,TRUE,144,1,1.21659841400106,TRUE,TRUE,"old"
"MPE101","imm","1","/isoluminant_stim/main_task/inanimate/inanimate-dustpan.png","/isoluminant_stim/main_task/inanimate/inanimate-dustpan.png",TRUE,FALSE,TRUE,145,1,0.918237437999778,TRUE,TRUE,"old"
"MPE101","imm","1","/isoluminant_stim/main_task/animate/animate-seaturtle.png","/isoluminant_stim/main_task/animate/animate-seaturtle.png",TRUE,FALSE,TRUE,146,1,1.11210896299963,TRUE,TRUE,"old"
"MPE101","imm","1","/isoluminant_stim/main_task/inanimate/inanimate-umbrella01.png","/isoluminant_stim/main_task/inanimate/inanimate-umbrella01.png",TRUE,FALSE,TRUE,147,1,0.86973462899914,TRUE,TRUE,"old"
"MPE101","imm","1","/isoluminant_stim/preexposure/cookie01.png","/isoluminant_stim/preexposure/cookie01.png",TRUE,FALSE,FALSE,148,2,0.772527894998348,TRUE,FALSE,"new"
"MPE101","imm","1","/isoluminant_stim/main_task/inanimate/inanimate-drill01a.png","/isoluminant_stim/main_task/inanimate/inanimate-drill01a.png",FALSE,FALSE,FALSE,149,2,1.05760236100105,FALSE,TRUE,"new"
"MPE101","imm","1","/isoluminant_stim/main_task/animate/animate-greywolf.png","/isoluminant_stim/main_task/animate/animate-greywolf.png",TRUE,FALSE,TRUE,150,1,0.823620710001705,TRUE,TRUE,"old"
"MPE101","imm","1","/isoluminant_stim/main_task/inanimate/inanimate-boot01.png","/isoluminant_stim/main_task/inanimate/inanimate-boot01.png",TRUE,FALSE,TRUE,151,1,1.03220806099853,TRUE,TRUE,"old"
"MPE101","imm","1","/isoluminant_stim/main_task/animate/animate-hoofed-mountaingoat1.png","/isoluminant_stim/main_task/animate/animate-hoofed-mountaingoat1.png",FALSE,FALSE,FALSE,152,2,0.956501294000191,FALSE,TRUE,"new"
"MPE101","imm","1","/isoluminant_stim/main_task/animate/animate-squirrel.png","/isoluminant_stim/main_task/animate/animate-squirrel.png",FALSE,FALSE,FALSE,153,1,1.55983486599871,FALSE,FALSE,"old"
"MPE101","imm","1","/isoluminant_stim/main_task/animate/animate-insect-cricket.png","/isoluminant_stim/main_task/animate/animate-insect-cricket.png",FALSE,FALSE,FALSE,154,1,0.716167770999164,FALSE,FALSE,"old"
"MPE101","imm","1","/isoluminant_stim/main_task/animate/animate-hoofed-bongo.png","/isoluminant_stim/main_task/animate/animate-hoofed-bongo.png",TRUE,FALSE,TRUE,155,2,0.987635524001234,TRUE,FALSE,"new"
"MPE101","imm","1","/isoluminant_stim/main_task/animate/animate-seal.png","/isoluminant_stim/main_task/animate/animate-seal.png",TRUE,FALSE,TRUE,156,2,1.19757493399811,TRUE,FALSE,"new"
"MPE101","imm","1","/isoluminant_stim/main_task/animate/animate-iguana1.png","/isoluminant_stim/main_task/animate/animate-iguana1.png",FALSE,FALSE,FALSE,157,2,1.00565980000101,FALSE,TRUE,"new"
"MPE101","imm","1","/isoluminant_stim/main_task/inanimate/inanimate-basketballhoop02.png","/isoluminant_stim/main_task/inanimate/inanimate-basketballhoop02.png",TRUE,FALSE,TRUE,159,1,1.09765846400114,TRUE,TRUE,"old"
"MPE102","imm","1","/isoluminant_stim/main_task/inanimate/inanimate-beermug01a.png","/isoluminant_stim/main_task/inanimate/inanimate-beermug01a.png",FALSE,FALSE,FALSE,0,2,0.689463455986697,FALSE,TRUE,"new"
"MPE102","imm","1","/isoluminant_stim/main_task/inanimate/inanimate-chiliflake.png","/isoluminant_stim/main_task/inanimate/inanimate-chiliflake.png",TRUE,FALSE,TRUE,1,1,0.770672855986049,TRUE,TRUE,"old"
"MPE102","imm","1","/isoluminant_stim/main_task/animate/animate-brownbear1.png","/isoluminant_stim/main_task/animate/animate-brownbear1.png",TRUE,FALSE,TRUE,2,1,0.86860318199615,TRUE,TRUE,"old"
"MPE102","imm","1","/isoluminant_stim/main_task/inanimate/inanimate-pingpongpaddle01a.png","/isoluminant_stim/main_task/inanimate/inanimate-pingpongpaddle01a.png",TRUE,FALSE,TRUE,3,1,0.853874096006621,TRUE,TRUE,"old"
"MPE102","imm","1","/isoluminant_stim/preexposure/pokerchips.png","/isoluminant_stim/preexposure/pokerchips.png",TRUE,FALSE,FALSE,4,1,0.766200648009544,TRUE,TRUE,"old"
"MPE102","imm","1","/isoluminant_stim/main_task/animate/animate-blue-butterfly.png","/isoluminant_stim/main_task/animate/animate-blue-butterfly.png",FALSE,FALSE,FALSE,5,2,0.837248066993197,FALSE,TRUE,"new"
"MPE102","imm","1","/isoluminant_stim/main_task/animate/animate-hoofed-eland.png","/isoluminant_stim/main_task/animate/animate-hoofed-eland.png",TRUE,FALSE,TRUE,6,1,0.951267866999842,TRUE,TRUE,"old"
"MPE102","imm","1","/isoluminant_stim/main_task/inanimate/inanimate-electricrazor.png","/isoluminant_stim/main_task/inanimate/inanimate-electricrazor.png",FALSE,FALSE,FALSE,7,2,0.893899082991993,FALSE,TRUE,"new"
"MPE102","imm","1","/isoluminant_stim/main_task/animate/animate-rockbass.png","/isoluminant_stim/main_task/animate/animate-rockbass.png",FALSE,FALSE,FALSE,8,2,0.876674072002061,FALSE,TRUE,"new"
"MPE102","imm","1","/isoluminant_stim/main_task/animate/animate-duck.png","/isoluminant_stim/main_task/animate/animate-duck.png",TRUE,FALSE,TRUE,9,2,0.861495944991475,TRUE,FALSE,"new"
"MPE102","imm","1","/isoluminant_stim/main_task/inanimate/inanimate-box01a.png","/isoluminant_stim/main_task/inanimate/inanimate-box01a.png",FALSE,FALSE,FALSE,10,1,0.913084053987404,FALSE,FALSE,"old"
"MPE102","imm","1","/isoluminant_stim/preexposure/mussel.png","/isoluminant_stim/preexposure/mussel.png",TRUE,FALSE,FALSE,11,1,0.849299683002755,TRUE,TRUE,"old"
"MPE102","imm","1","/isoluminant_stim/main_task/animate/animate-cockroach.png","/isoluminant_stim/main_task/animate/animate-cockroach.png",FALSE,FALSE,FALSE,12,1,1.08315020499867,FALSE,FALSE,"old"
"MPE102","imm","1","/isoluminant_stim/main_task/animate/animate-clownfish.png","/isoluminant_stim/main_task/animate/animate-clownfish.png",FALSE,FALSE,FALSE,13,2,1.24539784700028,FALSE,TRUE,"new"
"MPE102","imm","1","/isoluminant_stim/main_task/inanimate/inanimate-laundrybasket01a.png","/isoluminant_stim/main_task/inanimate/inanimate-laundrybasket01a.png",FALSE,FALSE,FALSE,14,1,0.743507856997894,FALSE,FALSE,"old"
"MPE102","imm","1","/isoluminant_stim/main_task/inanimate/inanimate-icebucket.png","/isoluminant_stim/main_task/inanimate/inanimate-icebucket.png",FALSE,FALSE,FALSE,15,2,0.972649108007317,FALSE,TRUE,"new"
"MPE102","imm","1","/isoluminant_stim/main_task/animate/animate-seal.png","/isoluminant_stim/main_task/animate/animate-seal.png",TRUE,FALSE,TRUE,16,2,1.12975583400112,TRUE,FALSE,"new"
"MPE102","imm","1","/isoluminant_stim/main_task/animate/animate-seaturtle.png","/isoluminant_stim/main_task/animate/animate-seaturtle.png",TRUE,FALSE,TRUE,17,1,0.984487272013212,TRUE,TRUE,"old"
"MPE102","imm","1","/isoluminant_stim/main_task/animate/animate-mongoose.png","/isoluminant_stim/main_task/animate/animate-mongoose.png",FALSE,FALSE,FALSE,18,2,0.924224996007979,FALSE,TRUE,"new"
"MPE102","imm","1","/isoluminant_stim/main_task/animate/animate-seagull.png","/isoluminant_stim/main_task/animate/animate-seagull.png",FALSE,FALSE,FALSE,19,1,1.23923825199017,FALSE,FALSE,"old"
"MPE102","imm","1","/isoluminant_stim/main_task/animate/animate-dromedary.png","/isoluminant_stim/main_task/animate/animate-dromedary.png",TRUE,FALSE,TRUE,20,2,1.51272186700953,TRUE,FALSE,"new"
"MPE102","imm","1","/isoluminant_stim/main_task/inanimate/inanimate-pineapple01a.png","/isoluminant_stim/main_task/inanimate/inanimate-pineapple01a.png",TRUE,FALSE,TRUE,21,1,0.92299913597526,TRUE,TRUE,"old"
"MPE102","imm","1","/isoluminant_stim/preexposure/toyradio01a.png","/isoluminant_stim/preexposure/toyradio01a.png",TRUE,FALSE,FALSE,22,1,1.57951711601345,TRUE,TRUE,"old"
"MPE102","imm","1","/isoluminant_stim/main_task/inanimate/inanimate-calculator01.png","/isoluminant_stim/main_task/inanimate/inanimate-calculator01.png",FALSE,FALSE,FALSE,23,2,1.81206138999551,FALSE,TRUE,"new"
"MPE102","imm","1","/isoluminant_stim/main_task/inanimate/inanimate-camera01a.png","/isoluminant_stim/main_task/inanimate/inanimate-camera01a.png",FALSE,FALSE,FALSE,24,NA,NA,FALSE,NA,NA
"MPE102","imm","1","/isoluminant_stim/main_task/inanimate/inanimate-porsche.png","/isoluminant_stim/main_task/inanimate/inanimate-porsche.png",TRUE,FALSE,TRUE,25,1,0.948490319016855,TRUE,TRUE,"old"
"MPE102","imm","1","/isoluminant_stim/main_task/inanimate/inanimate-cassettetape01a.png","/isoluminant_stim/main_task/inanimate/inanimate-cassettetape01a.png",FALSE,FALSE,FALSE,26,2,1.41554069999256,FALSE,TRUE,"new"
"MPE102","imm","1","/isoluminant_stim/main_task/animate/animate-gorilla.png","/isoluminant_stim/main_task/animate/animate-gorilla.png",TRUE,FALSE,TRUE,27,2,1.49249150100513,TRUE,FALSE,"new"
"MPE102","imm","1","/isoluminant_stim/main_task/animate/animate-hoofed-okapi.png","/isoluminant_stim/main_task/animate/animate-hoofed-okapi.png",FALSE,FALSE,FALSE,28,2,1.02415837801527,FALSE,TRUE,"new"
"MPE102","imm","1","/isoluminant_stim/preexposure/toydinosaur.png","/isoluminant_stim/preexposure/toydinosaur.png",TRUE,FALSE,FALSE,29,2,1.13859853701433,TRUE,FALSE,"new"
"MPE102","imm","1","/isoluminant_stim/main_task/animate/animate-barnowl.png","/isoluminant_stim/main_task/animate/animate-barnowl.png",TRUE,FALSE,TRUE,30,1,1.32433953200234,TRUE,TRUE,"old"
"MPE102","imm","1","/isoluminant_stim/main_task/animate/animate-eagle.png","/isoluminant_stim/main_task/animate/animate-eagle.png",TRUE,FALSE,TRUE,31,1,1.01247980500921,TRUE,TRUE,"old"
"MPE102","imm","1","/isoluminant_stim/main_task/animate/animate-lobster.png","/isoluminant_stim/main_task/animate/animate-lobster.png",TRUE,FALSE,TRUE,32,1,0.907636747986544,TRUE,TRUE,"old"
"MPE102","imm","1","/isoluminant_stim/main_task/inanimate/inanimate-turnip.png","/isoluminant_stim/main_task/inanimate/inanimate-turnip.png",TRUE,FALSE,TRUE,33,1,1.13454978101072,TRUE,TRUE,"old"
"MPE102","imm","1","/isoluminant_stim/preexposure/makiroll.png","/isoluminant_stim/preexposure/makiroll.png",TRUE,FALSE,FALSE,34,1,0.863319583993871,TRUE,TRUE,"old"
"MPE102","imm","1","/isoluminant_stim/main_task/inanimate/inanimate-jokercard.png","/isoluminant_stim/main_task/inanimate/inanimate-jokercard.png",FALSE,FALSE,FALSE,35,2,0.992595016985433,FALSE,TRUE,"new"
"MPE102","imm","1","/isoluminant_stim/main_task/animate/animate-ant.png","/isoluminant_stim/main_task/animate/animate-ant.png",TRUE,FALSE,TRUE,36,1,0.856422592012677,TRUE,TRUE,"old"
"MPE102","imm","1","/isoluminant_stim/main_task/inanimate/inanimate-tie01.png","/isoluminant_stim/main_task/inanimate/inanimate-tie01.png",FALSE,FALSE,FALSE,37,2,0.776901002012892,FALSE,TRUE,"new"
"MPE102","imm","1","/isoluminant_stim/main_task/inanimate/inanimate-dice02b.png","/isoluminant_stim/main_task/inanimate/inanimate-dice02b.png",TRUE,FALSE,TRUE,38,1,1.125446008984,TRUE,TRUE,"old"
"MPE102","imm","1","/isoluminant_stim/main_task/inanimate/inanimate-firehydrant.png","/isoluminant_stim/main_task/inanimate/inanimate-firehydrant.png",FALSE,FALSE,FALSE,39,2,0.950719506014138,FALSE,TRUE,"new"
"MPE102","imm","1","/isoluminant_stim/main_task/inanimate/inanimate-palmier.png","/isoluminant_stim/main_task/inanimate/inanimate-palmier.png",FALSE,FALSE,FALSE,40,1,0.788537032000022,FALSE,FALSE,"old"
"MPE102","imm","1","/isoluminant_stim/main_task/animate/animate-hoofed-bongo.png","/isoluminant_stim/main_task/animate/animate-hoofed-bongo.png",TRUE,FALSE,TRUE,41,1,1.68782971700421,TRUE,TRUE,"old"
"MPE102","imm","1","/isoluminant_stim/main_task/animate/animate-iguana1.png","/isoluminant_stim/main_task/animate/animate-iguana1.png",TRUE,FALSE,TRUE,42,1,0.950716499006376,TRUE,TRUE,"old"
"MPE102","imm","1","/isoluminant_stim/main_task/animate/animate-redfox.png","/isoluminant_stim/main_task/animate/animate-redfox.png",TRUE,FALSE,TRUE,43,1,1.10684634398785,TRUE,TRUE,"old"
"MPE102","imm","1","/isoluminant_stim/main_task/inanimate/inanimate-fan.png","/isoluminant_stim/main_task/inanimate/inanimate-fan.png",TRUE,FALSE,TRUE,44,1,1.11430833800114,TRUE,TRUE,"old"
"MPE102","imm","1","/isoluminant_stim/main_task/inanimate/inanimate-bagel01.png","/isoluminant_stim/main_task/inanimate/inanimate-bagel01.png",FALSE,FALSE,FALSE,45,1,1.10279466400971,FALSE,FALSE,"old"
"MPE102","imm","1","/isoluminant_stim/main_task/inanimate/inanimate-birdnest.png","/isoluminant_stim/main_task/inanimate/inanimate-birdnest.png",TRUE,FALSE,TRUE,46,1,0.960868802998448,TRUE,TRUE,"old"
"MPE102","imm","1","/isoluminant_stim/main_task/animate/animate-cormorant.png","/isoluminant_stim/main_task/animate/animate-cormorant.png",FALSE,FALSE,FALSE,47,2,1.43062312199618,FALSE,TRUE,"new"
"MPE102","imm","1","/isoluminant_stim/main_task/inanimate/inanimate-thumbtack02b.png","/isoluminant_stim/main_task/inanimate/inanimate-thumbtack02b.png",FALSE,FALSE,FALSE,49,2,0.944391219003592,FALSE,TRUE,"new"
"MPE102","imm","1","/isoluminant_stim/main_task/inanimate/inanimate-tomato02.png","/isoluminant_stim/main_task/inanimate/inanimate-tomato02.png",TRUE,FALSE,TRUE,50,1,1.11266772999079,TRUE,TRUE,"old"
"MPE102","imm","1","/isoluminant_stim/main_task/inanimate/inanimate-raspberry.png","/isoluminant_stim/main_task/inanimate/inanimate-raspberry.png",TRUE,FALSE,TRUE,51,1,0.797744937997777,TRUE,TRUE,"old"
"MPE102","imm","1","/isoluminant_stim/main_task/animate/animate-cow01.png","/isoluminant_stim/main_task/animate/animate-cow01.png",FALSE,FALSE,FALSE,52,2,1.11188427498564,FALSE,TRUE,"new"
"MPE102","imm","1","/isoluminant_stim/main_task/inanimate/inanimate-baseballglove.png","/isoluminant_stim/main_task/inanimate/inanimate-baseballglove.png",FALSE,FALSE,FALSE,53,2,0.911899995990098,FALSE,TRUE,"new"
"MPE102","imm","1","/isoluminant_stim/main_task/inanimate/inanimate-toycar02a.png","/isoluminant_stim/main_task/inanimate/inanimate-toycar02a.png",TRUE,FALSE,TRUE,54,2,1.13476940800319,TRUE,FALSE,"new"
"MPE102","imm","1","/isoluminant_stim/preexposure/pot01.png","/isoluminant_stim/preexposure/pot01.png",TRUE,FALSE,FALSE,56,2,1.31147538399091,TRUE,FALSE,"new"
"MPE102","imm","1","/isoluminant_stim/main_task/inanimate/inanimate-doormat.png","/isoluminant_stim/main_task/inanimate/inanimate-doormat.png",TRUE,FALSE,TRUE,57,1,1.04791652501444,TRUE,TRUE,"old"
"MPE102","imm","1","/isoluminant_stim/main_task/inanimate/inanimate-dustpan.png","/isoluminant_stim/main_task/inanimate/inanimate-dustpan.png",TRUE,FALSE,TRUE,58,1,0.750089287990704,TRUE,TRUE,"old"
"MPE102","imm","1","/isoluminant_stim/main_task/animate/animate-cardinal.png","/isoluminant_stim/main_task/animate/animate-cardinal.png",FALSE,FALSE,FALSE,59,2,1.09194482897874,FALSE,TRUE,"new"
"MPE102","imm","1","/isoluminant_stim/main_task/inanimate/inanimate-bucket01a.png","/isoluminant_stim/main_task/inanimate/inanimate-bucket01a.png",FALSE,FALSE,FALSE,60,2,1.27630103498814,FALSE,TRUE,"new"
"MPE102","imm","1","/isoluminant_stim/main_task/animate/animate-grizzly.png","/isoluminant_stim/main_task/animate/animate-grizzly.png",FALSE,FALSE,FALSE,61,1,1.47011391300475,FALSE,FALSE,"old"
"MPE102","imm","1","/isoluminant_stim/main_task/animate/animate-hen.png","/isoluminant_stim/main_task/animate/animate-hen.png",FALSE,FALSE,FALSE,62,1,1.16265251400182,FALSE,FALSE,"old"
"MPE102","imm","1","/isoluminant_stim/preexposure/medal02b.png","/isoluminant_stim/preexposure/medal02b.png",TRUE,FALSE,FALSE,63,2,0.952678224013653,TRUE,FALSE,"new"
"MPE102","imm","1","/isoluminant_stim/main_task/inanimate/inanimate-usbcable01b.png","/isoluminant_stim/main_task/inanimate/inanimate-usbcable01b.png",TRUE,FALSE,TRUE,64,1,0.971057137998287,TRUE,TRUE,"old"
"MPE102","imm","1","/isoluminant_stim/main_task/inanimate/inanimate-bowl02c.png","/isoluminant_stim/main_task/inanimate/inanimate-bowl02c.png",TRUE,FALSE,TRUE,65,1,1.07471951801563,TRUE,TRUE,"old"
"MPE102","imm","1","/isoluminant_stim/main_task/animate/animate-chimpanzee.png","/isoluminant_stim/main_task/animate/animate-chimpanzee.png",TRUE,FALSE,TRUE,66,1,0.880464037996717,TRUE,TRUE,"old"
"MPE102","imm","1","/isoluminant_stim/main_task/inanimate/inanimate-handbag01.png","/isoluminant_stim/main_task/inanimate/inanimate-handbag01.png",FALSE,FALSE,FALSE,67,2,0.810326092992909,FALSE,TRUE,"new"
"MPE102","imm","1","/isoluminant_stim/main_task/animate/animate-duck01.png","/isoluminant_stim/main_task/animate/animate-duck01.png",TRUE,FALSE,TRUE,68,1,1.12710270599928,TRUE,TRUE,"old"
"MPE102","imm","1","/isoluminant_stim/main_task/animate/animate-jellyfish.png","/isoluminant_stim/main_task/animate/animate-jellyfish.png",FALSE,FALSE,FALSE,69,2,0.905234497011406,FALSE,TRUE,"new"
"MPE102","imm","1","/isoluminant_stim/main_task/inanimate/inanimate-corn02.png","/isoluminant_stim/main_task/inanimate/inanimate-corn02.png",TRUE,FALSE,TRUE,71,1,0.874991844990291,TRUE,TRUE,"old"
"MPE102","imm","1","/isoluminant_stim/preexposure/football.png","/isoluminant_stim/preexposure/football.png",TRUE,FALSE,FALSE,72,1,1.09004691298469,TRUE,TRUE,"old"
"MPE102","imm","1","/isoluminant_stim/main_task/inanimate/inanimate-chest01.png","/isoluminant_stim/main_task/inanimate/inanimate-chest01.png",FALSE,FALSE,FALSE,73,2,0.913054048025515,FALSE,TRUE,"new"
"MPE102","imm","1","/isoluminant_stim/main_task/animate/animate-turtle.png","/isoluminant_stim/main_task/animate/animate-turtle.png",FALSE,FALSE,FALSE,74,2,0.854964166006539,FALSE,TRUE,"new"
"MPE102","imm","1","/isoluminant_stim/main_task/animate/animate-canary.png","/isoluminant_stim/main_task/animate/animate-canary.png",FALSE,FALSE,FALSE,75,2,0.924177815992152,FALSE,TRUE,"new"
"MPE102","imm","1","/isoluminant_stim/main_task/animate/animate-fish-angelfish.png","/isoluminant_stim/main_task/animate/animate-fish-angelfish.png",TRUE,FALSE,TRUE,76,1,0.803841674001887,TRUE,TRUE,"old"
"MPE102","imm","1","/isoluminant_stim/main_task/animate/animate-sapsucker.png","/isoluminant_stim/main_task/animate/animate-sapsucker.png",TRUE,FALSE,TRUE,77,1,1.28454461900401,TRUE,TRUE,"old"
"MPE102","imm","1","/isoluminant_stim/main_task/animate/animate-armadillo.png","/isoluminant_stim/main_task/animate/animate-armadillo.png",FALSE,FALSE,FALSE,78,1,0.970326225011377,FALSE,FALSE,"old"
"MPE102","imm","1","/isoluminant_stim/main_task/animate/animate-insect-ladybug.png","/isoluminant_stim/main_task/animate/animate-insect-ladybug.png",FALSE,FALSE,FALSE,80,2,1.07758505298989,FALSE,TRUE,"new"
"MPE102","imm","1","/isoluminant_stim/preexposure/litterbox.png","/isoluminant_stim/preexposure/litterbox.png",TRUE,FALSE,FALSE,82,2,0.831107083999086,TRUE,FALSE,"new"
"MPE102","imm","1","/isoluminant_stim/main_task/animate/animate-pugdog.png","/isoluminant_stim/main_task/animate/animate-pugdog.png",FALSE,FALSE,FALSE,83,2,0.800871833984274,FALSE,TRUE,"new"
"MPE102","imm","1","/isoluminant_stim/main_task/inanimate/inanimate-boxingglove01.png","/isoluminant_stim/main_task/inanimate/inanimate-boxingglove01.png",TRUE,FALSE,TRUE,84,1,0.867800830979832,TRUE,TRUE,"old"
"MPE102","imm","1","/isoluminant_stim/preexposure/motoroilbottle01.png","/isoluminant_stim/preexposure/motoroilbottle01.png",TRUE,FALSE,FALSE,85,2,0.918972938001389,TRUE,FALSE,"new"
"MPE102","imm","1","/isoluminant_stim/preexposure/footballhelmet.png","/isoluminant_stim/preexposure/footballhelmet.png",TRUE,FALSE,FALSE,86,2,0.814547643996775,TRUE,FALSE,"new"
"MPE102","imm","1","/isoluminant_stim/preexposure/mask02a.png","/isoluminant_stim/preexposure/mask02a.png",TRUE,FALSE,FALSE,87,2,0.978794764989288,TRUE,FALSE,"new"
"MPE102","imm","1","/isoluminant_stim/preexposure/rainboot.png","/isoluminant_stim/preexposure/rainboot.png",TRUE,FALSE,FALSE,88,1,1.43273535399931,TRUE,TRUE,"old"
"MPE102","imm","1","/isoluminant_stim/main_task/inanimate/inanimate-hat01a.png","/isoluminant_stim/main_task/inanimate/inanimate-hat01a.png",TRUE,FALSE,TRUE,89,1,0.831382462987676,TRUE,TRUE,"old"
"MPE102","imm","1","/isoluminant_stim/main_task/animate/animate-macaque.png","/isoluminant_stim/main_task/animate/animate-macaque.png",TRUE,FALSE,TRUE,90,1,0.926322654995602,TRUE,TRUE,"old"
"MPE102","imm","1","/isoluminant_stim/main_task/animate/animate-waterbuffalo.png","/isoluminant_stim/main_task/animate/animate-waterbuffalo.png",TRUE,FALSE,TRUE,91,1,0.924976049020188,TRUE,TRUE,"old"
"MPE102","imm","1","/isoluminant_stim/main_task/animate/animate-vulture.png","/isoluminant_stim/main_task/animate/animate-vulture.png",TRUE,FALSE,TRUE,92,2,0.84333796100691,TRUE,FALSE,"new"
"MPE102","imm","1","/isoluminant_stim/main_task/animate/animate-squirrel.png","/isoluminant_stim/main_task/animate/animate-squirrel.png",TRUE,FALSE,TRUE,93,2,1.18633727700217,TRUE,FALSE,"new"
"MPE102","imm","1","/isoluminant_stim/main_task/inanimate/inanimate-icecubetray02a.png","/isoluminant_stim/main_task/inanimate/inanimate-icecubetray02a.png",FALSE,FALSE,FALSE,94,2,0.770948464021785,FALSE,TRUE,"new"
"MPE102","imm","1","/isoluminant_stim/main_task/animate/animate-lizard1.png","/isoluminant_stim/main_task/animate/animate-lizard1.png",FALSE,FALSE,FALSE,95,2,0.715635094005847,FALSE,TRUE,"new"
"MPE102","imm","1","/isoluminant_stim/main_task/inanimate/inanimate-dresser01.png","/isoluminant_stim/main_task/inanimate/inanimate-dresser01.png",TRUE,FALSE,TRUE,96,1,0.758124521991704,TRUE,TRUE,"old"
"MPE102","imm","1","/isoluminant_stim/main_task/inanimate/inanimate-jarofcapers.png","/isoluminant_stim/main_task/inanimate/inanimate-jarofcapers.png",TRUE,FALSE,TRUE,97,2,0.718564651993802,TRUE,FALSE,"new"
"MPE102","imm","1","/isoluminant_stim/main_task/inanimate/inanimate-drum01.png","/isoluminant_stim/main_task/inanimate/inanimate-drum01.png",FALSE,FALSE,FALSE,98,2,0.756717554002535,FALSE,TRUE,"new"
"MPE102","imm","1","/isoluminant_stim/main_task/animate/animate-swallow.png","/isoluminant_stim/main_task/animate/animate-swallow.png",FALSE,FALSE,FALSE,99,1,1.14420429800521,FALSE,FALSE,"old"
"MPE102","imm","1","/isoluminant_stim/main_task/inanimate/inanimate-binder03a.png","/isoluminant_stim/main_task/inanimate/inanimate-binder03a.png",TRUE,FALSE,TRUE,102,1,0.886314738017973,TRUE,TRUE,"old"
"MPE102","imm","1","/isoluminant_stim/preexposure/cookie01.png","/isoluminant_stim/preexposure/cookie01.png",TRUE,FALSE,FALSE,103,1,0.953506546007702,TRUE,TRUE,"old"
"MPE102","imm","1","/isoluminant_stim/main_task/inanimate/inanimate-ducttape.png","/isoluminant_stim/main_task/inanimate/inanimate-ducttape.png",TRUE,FALSE,TRUE,104,1,0.843424566002795,TRUE,TRUE,"old"
"MPE102","imm","1","/isoluminant_stim/main_task/animate/animate-rhinoceros.png","/isoluminant_stim/main_task/animate/animate-rhinoceros.png",TRUE,FALSE,TRUE,105,1,1.10176469199359,TRUE,TRUE,"old"
"MPE102","imm","1","/isoluminant_stim/main_task/inanimate/inanimate-candydispenser.png","/isoluminant_stim/main_task/inanimate/inanimate-candydispenser.png",FALSE,FALSE,FALSE,106,2,0.878731349017471,FALSE,TRUE,"new"
"MPE102","imm","1","/isoluminant_stim/preexposure/stuffedanimal05a.png","/isoluminant_stim/preexposure/stuffedanimal05a.png",TRUE,FALSE,FALSE,107,1,0.970473463006783,TRUE,TRUE,"old"
"MPE102","imm","1","/isoluminant_stim/main_task/animate/animate-rat.png","/isoluminant_stim/main_task/animate/animate-rat.png",FALSE,FALSE,FALSE,108,2,0.891815048002172,FALSE,TRUE,"new"
"MPE102","imm","1","/isoluminant_stim/main_task/animate/animate-tortoise01.png","/isoluminant_stim/main_task/animate/animate-tortoise01.png",TRUE,FALSE,TRUE,109,2,0.890749323996715,TRUE,FALSE,"new"
"MPE102","imm","1","/isoluminant_stim/main_task/animate/animate-fly.png","/isoluminant_stim/main_task/animate/animate-fly.png",FALSE,FALSE,FALSE,110,2,1.04011133298627,FALSE,TRUE,"new"
"MPE102","imm","1","/isoluminant_stim/main_task/inanimate/inanimate-helmet.png","/isoluminant_stim/main_task/inanimate/inanimate-helmet.png",TRUE,FALSE,TRUE,112,2,1.06962553801714,TRUE,FALSE,"new"
"MPE102","imm","1","/isoluminant_stim/main_task/animate/animate-bumble bee.png","/isoluminant_stim/main_task/animate/animate-bumble bee.png",FALSE,FALSE,FALSE,113,2,1.25396192001062,FALSE,TRUE,"new"
"MPE102","imm","1","/isoluminant_stim/main_task/inanimate/inanimate-bowlingball.png","/isoluminant_stim/main_task/inanimate/inanimate-bowlingball.png",FALSE,FALSE,FALSE,114,2,1.04339540700312,FALSE,TRUE,"new"
"MPE102","imm","1","/isoluminant_stim/main_task/inanimate/inanimate-brownie01a.png","/isoluminant_stim/main_task/inanimate/inanimate-brownie01a.png",TRUE,FALSE,TRUE,115,1,0.761897387012141,TRUE,TRUE,"old"
"MPE102","imm","1","/isoluminant_stim/main_task/inanimate/inanimate-lilypad.png","/isoluminant_stim/main_task/inanimate/inanimate-lilypad.png",FALSE,FALSE,FALSE,116,2,1.08628629898885,FALSE,TRUE,"new"
"MPE102","imm","1","/isoluminant_stim/main_task/animate/animate-bunny2.png","/isoluminant_stim/main_task/animate/animate-bunny2.png",FALSE,FALSE,FALSE,117,2,1.2509502809844,FALSE,TRUE,"new"
"MPE102","imm","1","/isoluminant_stim/main_task/inanimate/inanimate-wateringcan.png","/isoluminant_stim/main_task/inanimate/inanimate-wateringcan.png",TRUE,FALSE,TRUE,118,NA,NA,TRUE,NA,NA
"MPE102","imm","1","/isoluminant_stim/main_task/inanimate/inanimate-highheelshoe01.png","/isoluminant_stim/main_task/inanimate/inanimate-highheelshoe01.png",TRUE,FALSE,TRUE,120,1,0.927635494997958,TRUE,TRUE,"old"
"MPE102","imm","1","/isoluminant_stim/preexposure/measuringtape01.png","/isoluminant_stim/preexposure/measuringtape01.png",TRUE,FALSE,FALSE,121,2,1.12821178798913,TRUE,FALSE,"new"
"MPE102","imm","1","/isoluminant_stim/main_task/animate/animate-hoofed-mountaingoat1.png","/isoluminant_stim/main_task/animate/animate-hoofed-mountaingoat1.png",FALSE,FALSE,FALSE,122,1,1.63439143597498,FALSE,FALSE,"old"
"MPE102","imm","1","/isoluminant_stim/main_task/animate/animate-whalebeluga.png","/isoluminant_stim/main_task/animate/animate-whalebeluga.png",TRUE,FALSE,TRUE,123,1,0.787320356001146,TRUE,TRUE,"old"
"MPE102","imm","1","/isoluminant_stim/preexposure/trafficlight.png","/isoluminant_stim/preexposure/trafficlight.png",TRUE,FALSE,FALSE,124,2,0.734475270990515,TRUE,FALSE,"new"
"MPE102","imm","1","/isoluminant_stim/main_task/inanimate/inanimate-tuba.png","/isoluminant_stim/main_task/inanimate/inanimate-tuba.png",FALSE,FALSE,FALSE,125,2,0.854369720007526,FALSE,TRUE,"new"
"MPE102","imm","1","/isoluminant_stim/main_task/animate/animate-rooster.png","/isoluminant_stim/main_task/animate/animate-rooster.png",TRUE,FALSE,TRUE,126,2,0.839817169995513,TRUE,FALSE,"new"
"MPE102","imm","1","/isoluminant_stim/main_task/animate/animate-pelican.png","/isoluminant_stim/main_task/animate/animate-pelican.png",FALSE,FALSE,FALSE,127,2,0.869609755987767,FALSE,TRUE,"new"
"MPE102","imm","1","/isoluminant_stim/preexposure/clover.png","/isoluminant_stim/preexposure/clover.png",TRUE,FALSE,FALSE,128,2,0.739229276019614,TRUE,FALSE,"new"
"MPE102","imm","1","/isoluminant_stim/main_task/animate/animate-polarbear.png","/isoluminant_stim/main_task/animate/animate-polarbear.png",TRUE,FALSE,TRUE,129,2,1.14904996700352,TRUE,FALSE,"new"
"MPE102","imm","1","/isoluminant_stim/main_task/inanimate/inanimate-bowlofcereal.png","/isoluminant_stim/main_task/inanimate/inanimate-bowlofcereal.png",FALSE,FALSE,FALSE,130,2,0.709503732010489,FALSE,TRUE,"new"
"MPE102","imm","1","/isoluminant_stim/main_task/inanimate/inanimate-volleyball.png","/isoluminant_stim/main_task/inanimate/inanimate-volleyball.png",FALSE,FALSE,FALSE,131,2,0.694090137985768,FALSE,TRUE,"new"
"MPE102","imm","1","/isoluminant_stim/main_task/inanimate/inanimate-firealarm.png","/isoluminant_stim/main_task/inanimate/inanimate-firealarm.png",TRUE,FALSE,TRUE,132,1,0.959959300002083,TRUE,TRUE,"old"
"MPE102","imm","1","/isoluminant_stim/preexposure/soap02a.png","/isoluminant_stim/preexposure/soap02a.png",TRUE,FALSE,FALSE,133,1,0.757827694003936,TRUE,TRUE,"old"
"MPE102","imm","1","/isoluminant_stim/main_task/animate/animate-hoofed-sableantelope.png","/isoluminant_stim/main_task/animate/animate-hoofed-sableantelope.png",TRUE,FALSE,TRUE,134,NA,NA,TRUE,NA,NA
"MPE102","imm","1","/isoluminant_stim/main_task/animate/animate-redlionfish.png","/isoluminant_stim/main_task/animate/animate-redlionfish.png",FALSE,FALSE,FALSE,135,2,1.19428014999721,FALSE,TRUE,"new"
"MPE102","imm","1","/isoluminant_stim/main_task/inanimate/inanimate-baseball01a.png","/isoluminant_stim/main_task/inanimate/inanimate-baseball01a.png",TRUE,FALSE,TRUE,136,1,0.91533350199461,TRUE,TRUE,"old"
"MPE102","imm","1","/isoluminant_stim/main_task/animate/animate-turkey.png","/isoluminant_stim/main_task/animate/animate-turkey.png",FALSE,FALSE,FALSE,137,NA,NA,FALSE,NA,NA
"MPE102","imm","1","/isoluminant_stim/preexposure/pecan03b.png","/isoluminant_stim/preexposure/pecan03b.png",TRUE,FALSE,FALSE,138,1,0.873748449987033,TRUE,TRUE,"old"
"MPE102","imm","1","/isoluminant_stim/preexposure/cocktailshrimp02.png","/isoluminant_stim/preexposure/cocktailshrimp02.png",TRUE,FALSE,FALSE,139,1,0.989875709987246,TRUE,TRUE,"old"
"MPE102","imm","1","/isoluminant_stim/main_task/animate/animate-kitty2.png","/isoluminant_stim/main_task/animate/animate-kitty2.png",TRUE,FALSE,TRUE,140,1,0.874998676998075,TRUE,TRUE,"old"
"MPE102","imm","1","/isoluminant_stim/preexposure/chessknight03a.png","/isoluminant_stim/preexposure/chessknight03a.png",TRUE,FALSE,FALSE,141,1,0.882589193992317,TRUE,TRUE,"old"
"MPE102","imm","1","/isoluminant_stim/main_task/inanimate/inanimate-flask.png","/isoluminant_stim/main_task/inanimate/inanimate-flask.png",FALSE,FALSE,FALSE,142,2,0.761834169999929,FALSE,TRUE,"new"
"MPE102","imm","1","/isoluminant_stim/main_task/inanimate/inanimate-bluecheese.png","/isoluminant_stim/main_task/inanimate/inanimate-bluecheese.png",TRUE,FALSE,TRUE,143,1,0.912435244012158,TRUE,TRUE,"old"
"MPE102","imm","1","/isoluminant_stim/main_task/inanimate/inanimate-calendar.png","/isoluminant_stim/main_task/inanimate/inanimate-calendar.png",FALSE,FALSE,FALSE,144,2,0.78451257001143,FALSE,TRUE,"new"
"MPE102","imm","1","/isoluminant_stim/preexposure/pizza.png","/isoluminant_stim/preexposure/pizza.png",TRUE,FALSE,FALSE,145,1,0.840620995004429,TRUE,TRUE,"old"
"MPE102","imm","1","/isoluminant_stim/main_task/inanimate/inanimate-pepper05b.png","/isoluminant_stim/main_task/inanimate/inanimate-pepper05b.png",FALSE,FALSE,FALSE,146,2,1.03803032499854,FALSE,TRUE,"new"
"MPE102","imm","1","/isoluminant_stim/main_task/animate/animate-porcupine.png","/isoluminant_stim/main_task/animate/animate-porcupine.png",TRUE,FALSE,TRUE,147,1,0.753057625988731,TRUE,TRUE,"old"
"MPE102","imm","1","/isoluminant_stim/main_task/animate/animate-crab02.png","/isoluminant_stim/main_task/animate/animate-crab02.png",FALSE,FALSE,FALSE,148,2,1.10714041200117,FALSE,TRUE,"new"
"MPE102","imm","1","/isoluminant_stim/main_task/animate/animate-cougar.png","/isoluminant_stim/main_task/animate/animate-cougar.png",TRUE,FALSE,TRUE,149,1,0.805946947977645,TRUE,TRUE,"old"
"MPE102","imm","1","/isoluminant_stim/main_task/inanimate/inanimate-nightstand.png","/isoluminant_stim/main_task/inanimate/inanimate-nightstand.png",TRUE,FALSE,TRUE,150,1,0.877344476000872,TRUE,TRUE,"old"
"MPE102","imm","1","/isoluminant_stim/main_task/inanimate/inanimate-iceberglettuce.png","/isoluminant_stim/main_task/inanimate/inanimate-iceberglettuce.png",TRUE,FALSE,TRUE,151,1,0.748340638994705,TRUE,TRUE,"old"
"MPE102","imm","1","/isoluminant_stim/main_task/inanimate/inanimate-basketballhoop02.png","/isoluminant_stim/main_task/inanimate/inanimate-basketballhoop02.png",FALSE,FALSE,FALSE,152,2,0.7432860910194,FALSE,TRUE,"new"
"MPE102","imm","1","/isoluminant_stim/main_task/inanimate/inanimate-arugula.png","/isoluminant_stim/main_task/inanimate/inanimate-arugula.png",FALSE,FALSE,FALSE,153,1,1.05528574102209,FALSE,FALSE,"old"
"MPE102","imm","1","/isoluminant_stim/main_task/inanimate/inanimate-cap01a.png","/isoluminant_stim/main_task/inanimate/inanimate-cap01a.png",FALSE,FALSE,FALSE,154,2,1.16999538100208,FALSE,TRUE,"new"
"MPE102","imm","1","/isoluminant_stim/main_task/animate/animate-chinchilla1.png","/isoluminant_stim/main_task/animate/animate-chinchilla1.png",FALSE,FALSE,FALSE,155,2,1.00932808200014,FALSE,TRUE,"new"
"MPE102","imm","1","/isoluminant_stim/main_task/animate/animate-llama-alpaca.png","/isoluminant_stim/main_task/animate/animate-llama-alpaca.png",FALSE,FALSE,FALSE,156,2,0.892276366997976,FALSE,TRUE,"new"
"MPE102","imm","1","/isoluminant_stim/main_task/animate/animate-fennec.png","/isoluminant_stim/main_task/animate/animate-fennec.png",TRUE,FALSE,TRUE,157,1,1.45986139497836,TRUE,TRUE,"old"
"MPE102","imm","1","/isoluminant_stim/main_task/animate/animate-shrimp.png","/isoluminant_stim/main_task/animate/animate-shrimp.png",FALSE,FALSE,FALSE,158,2,0.917514571978245,FALSE,TRUE,"new"
"MPE102","imm","1","/isoluminant_stim/main_task/inanimate/inanimate-gastank.png","/isoluminant_stim/main_task/inanimate/inanimate-gastank.png",TRUE,FALSE,TRUE,159,1,0.806362276984146,TRUE,TRUE,"old"
"MPE103","imm","1","/isoluminant_stim/main_task/animate/animate-canary.png","/isoluminant_stim/main_task/animate/animate-canary.png",FALSE,FALSE,FALSE,1,2,0.718894592020661,FALSE,TRUE,"new"
"MPE103","imm","1","/isoluminant_stim/main_task/inanimate/inanimate-bubbleblower.png","/isoluminant_stim/main_task/inanimate/inanimate-bubbleblower.png",TRUE,FALSE,TRUE,2,2,1.11278497101739,TRUE,FALSE,"new"
"MPE103","imm","1","/isoluminant_stim/preexposure/stuffedpuffin.png","/isoluminant_stim/preexposure/stuffedpuffin.png",TRUE,FALSE,FALSE,3,2,0.743255323002813,TRUE,FALSE,"new"
"MPE103","imm","1","/isoluminant_stim/main_task/inanimate/inanimate-jokercard.png","/isoluminant_stim/main_task/inanimate/inanimate-jokercard.png",TRUE,FALSE,TRUE,4,2,0.822838838997995,TRUE,FALSE,"new"
"MPE103","imm","1","/isoluminant_stim/main_task/inanimate/inanimate-cauliflower01.png","/isoluminant_stim/main_task/inanimate/inanimate-cauliflower01.png",FALSE,FALSE,FALSE,5,2,0.740724980016239,FALSE,TRUE,"new"
"MPE103","imm","1","/isoluminant_stim/main_task/inanimate/inanimate-glass01.png","/isoluminant_stim/main_task/inanimate/inanimate-glass01.png",TRUE,FALSE,TRUE,6,2,0.696098468994023,TRUE,FALSE,"new"
"MPE103","imm","1","/isoluminant_stim/main_task/inanimate/inanimate-apple01.png","/isoluminant_stim/main_task/inanimate/inanimate-apple01.png",FALSE,FALSE,FALSE,7,2,0.773130308021791,FALSE,TRUE,"new"
"MPE103","imm","1","/isoluminant_stim/main_task/animate/animate-blue-butterfly.png","/isoluminant_stim/main_task/animate/animate-blue-butterfly.png",TRUE,FALSE,TRUE,8,1,0.658096368017141,TRUE,TRUE,"old"
"MPE103","imm","1","/isoluminant_stim/main_task/animate/animate-orangutan.png","/isoluminant_stim/main_task/animate/animate-orangutan.png",TRUE,FALSE,TRUE,9,2,0.849466387007851,TRUE,FALSE,"new"
"MPE103","imm","1","/isoluminant_stim/main_task/inanimate/inanimate-laundrybasket01a.png","/isoluminant_stim/main_task/inanimate/inanimate-laundrybasket01a.png",TRUE,FALSE,TRUE,10,1,0.677474750991678,TRUE,TRUE,"old"
"MPE103","imm","1","/isoluminant_stim/main_task/animate/animate-rockbass.png","/isoluminant_stim/main_task/animate/animate-rockbass.png",FALSE,FALSE,FALSE,11,2,0.767858923994936,FALSE,TRUE,"new"
"MPE103","imm","1","/isoluminant_stim/main_task/animate/animate-hoofed-moose1.png","/isoluminant_stim/main_task/animate/animate-hoofed-moose1.png",FALSE,FALSE,FALSE,12,1,1.01531149999937,FALSE,FALSE,"old"
"MPE103","imm","1","/isoluminant_stim/main_task/inanimate/inanimate-bagel01.png","/isoluminant_stim/main_task/inanimate/inanimate-bagel01.png",TRUE,FALSE,TRUE,13,1,0.683817844022997,TRUE,TRUE,"old"
"MPE103","imm","1","/isoluminant_stim/main_task/animate/animate-polarbear.png","/isoluminant_stim/main_task/animate/animate-polarbear.png",FALSE,FALSE,FALSE,14,1,1.08862946997397,FALSE,FALSE,"old"
"MPE103","imm","1","/isoluminant_stim/main_task/inanimate/inanimate-drum01.png","/isoluminant_stim/main_task/inanimate/inanimate-drum01.png",TRUE,FALSE,TRUE,15,1,0.753024142992217,TRUE,TRUE,"old"
"MPE103","imm","1","/isoluminant_stim/main_task/inanimate/inanimate-tuba.png","/isoluminant_stim/main_task/inanimate/inanimate-tuba.png",TRUE,FALSE,TRUE,16,2,0.803986507991794,TRUE,FALSE,"new"
"MPE103","imm","1","/isoluminant_stim/main_task/animate/animate-macaque.png","/isoluminant_stim/main_task/animate/animate-macaque.png",FALSE,FALSE,FALSE,17,2,0.89692314498825,FALSE,TRUE,"new"
"MPE103","imm","1","/isoluminant_stim/main_task/animate/animate-platypus.png","/isoluminant_stim/main_task/animate/animate-platypus.png",TRUE,FALSE,TRUE,19,1,1.00114438400487,TRUE,TRUE,"old"
"MPE103","imm","1","/isoluminant_stim/main_task/inanimate/inanimate-candle06a.png","/isoluminant_stim/main_task/inanimate/inanimate-candle06a.png",FALSE,FALSE,FALSE,20,2,0.909841710992623,FALSE,TRUE,"new"
"MPE103","imm","1","/isoluminant_stim/main_task/animate/animate-grizzly.png","/isoluminant_stim/main_task/animate/animate-grizzly.png",TRUE,FALSE,TRUE,21,2,1.04022251599235,TRUE,FALSE,"new"
"MPE103","imm","1","/isoluminant_stim/preexposure/toyanimal01.png","/isoluminant_stim/preexposure/toyanimal01.png",TRUE,FALSE,FALSE,22,2,0.883266570977867,TRUE,FALSE,"new"
"MPE103","imm","1","/isoluminant_stim/main_task/animate/animate-panda.png","/isoluminant_stim/main_task/animate/animate-panda.png",FALSE,FALSE,FALSE,23,2,0.950643978983862,FALSE,TRUE,"new"
"MPE103","imm","1","/isoluminant_stim/preexposure/tarantula.png","/isoluminant_stim/preexposure/tarantula.png",TRUE,FALSE,FALSE,24,2,0.791930950974347,TRUE,FALSE,"new"
"MPE103","imm","1","/isoluminant_stim/preexposure/cantaloupe02.png","/isoluminant_stim/preexposure/cantaloupe02.png",TRUE,FALSE,FALSE,26,2,0.704463389003649,TRUE,FALSE,"new"
"MPE103","imm","1","/isoluminant_stim/preexposure/footballhelmet.png","/isoluminant_stim/preexposure/footballhelmet.png",TRUE,FALSE,FALSE,27,2,0.930591393000213,TRUE,FALSE,"new"
"MPE103","imm","1","/isoluminant_stim/main_task/inanimate/inanimate-lilypad.png","/isoluminant_stim/main_task/inanimate/inanimate-lilypad.png",FALSE,FALSE,FALSE,28,2,0.668049948988482,FALSE,TRUE,"new"
"MPE103","imm","1","/isoluminant_stim/preexposure/oyster02.png","/isoluminant_stim/preexposure/oyster02.png",TRUE,FALSE,FALSE,30,2,1.09638712499873,TRUE,FALSE,"new"
"MPE103","imm","1","/isoluminant_stim/main_task/inanimate/inanimate-bed.png","/isoluminant_stim/main_task/inanimate/inanimate-bed.png",TRUE,FALSE,TRUE,31,2,0.877940248989034,TRUE,FALSE,"new"
"MPE103","imm","1","/isoluminant_stim/main_task/animate/animate-blackbear.png","/isoluminant_stim/main_task/animate/animate-blackbear.png",FALSE,FALSE,FALSE,32,2,0.901596170006087,FALSE,TRUE,"new"
"MPE103","imm","1","/isoluminant_stim/main_task/inanimate/inanimate-gift01.png","/isoluminant_stim/main_task/inanimate/inanimate-gift01.png",TRUE,FALSE,TRUE,33,1,0.914826786989579,TRUE,TRUE,"old"
"MPE103","imm","1","/isoluminant_stim/main_task/inanimate/inanimate-boxingglove01.png","/isoluminant_stim/main_task/inanimate/inanimate-boxingglove01.png",FALSE,FALSE,FALSE,34,2,1.32275482401019,FALSE,TRUE,"new"
"MPE103","imm","1","/isoluminant_stim/main_task/animate/animate-aardvark.png","/isoluminant_stim/main_task/animate/animate-aardvark.png",FALSE,FALSE,FALSE,35,2,1.70293577999109,FALSE,TRUE,"new"
"MPE103","imm","1","/isoluminant_stim/main_task/inanimate/inanimate-bowlofchips.png","/isoluminant_stim/main_task/inanimate/inanimate-bowlofchips.png",FALSE,FALSE,FALSE,36,2,0.82439939599135,FALSE,TRUE,"new"
"MPE103","imm","1","/isoluminant_stim/main_task/inanimate/inanimate-centurionhelmet.png","/isoluminant_stim/main_task/inanimate/inanimate-centurionhelmet.png",FALSE,FALSE,FALSE,37,2,0.914347294979962,FALSE,TRUE,"new"
"MPE103","imm","1","/isoluminant_stim/preexposure/toyradio01a.png","/isoluminant_stim/preexposure/toyradio01a.png",TRUE,FALSE,FALSE,38,2,0.805304840003373,TRUE,FALSE,"new"
"MPE103","imm","1","/isoluminant_stim/main_task/inanimate/inanimate-notebook01.png","/isoluminant_stim/main_task/inanimate/inanimate-notebook01.png",FALSE,FALSE,FALSE,40,2,0.59084809300839,FALSE,TRUE,"new"
"MPE103","imm","1","/isoluminant_stim/main_task/inanimate/inanimate-onion.png","/isoluminant_stim/main_task/inanimate/inanimate-onion.png",FALSE,FALSE,FALSE,41,2,0.630748561001383,FALSE,TRUE,"new"
"MPE103","imm","1","/isoluminant_stim/main_task/inanimate/inanimate-frisbee.png","/isoluminant_stim/main_task/inanimate/inanimate-frisbee.png",TRUE,FALSE,TRUE,42,2,0.557020731008379,TRUE,FALSE,"new"
"MPE103","imm","1","/isoluminant_stim/preexposure/moon.png","/isoluminant_stim/preexposure/moon.png",TRUE,FALSE,FALSE,43,2,0.683064287994057,TRUE,FALSE,"new"
"MPE103","imm","1","/isoluminant_stim/main_task/inanimate/inanimate-exitsign.png","/isoluminant_stim/main_task/inanimate/inanimate-exitsign.png",FALSE,FALSE,FALSE,44,2,0.599474051006837,FALSE,TRUE,"new"
"MPE103","imm","1","/isoluminant_stim/main_task/inanimate/inanimate-weddingcake.png","/isoluminant_stim/main_task/inanimate/inanimate-weddingcake.png",FALSE,FALSE,FALSE,45,2,0.846277819015086,FALSE,TRUE,"new"
"MPE103","imm","1","/isoluminant_stim/preexposure/toyanimal05.png","/isoluminant_stim/preexposure/toyanimal05.png",TRUE,FALSE,FALSE,46,2,0.844771711999783,TRUE,FALSE,"new"
"MPE103","imm","1","/isoluminant_stim/main_task/animate/animate-antelope.png","/isoluminant_stim/main_task/animate/animate-antelope.png",FALSE,FALSE,FALSE,47,1,1.18951747901156,FALSE,FALSE,"old"
"MPE103","imm","1","/isoluminant_stim/main_task/inanimate/inanimate-firealarm.png","/isoluminant_stim/main_task/inanimate/inanimate-firealarm.png",TRUE,FALSE,TRUE,48,2,1.10706494998885,TRUE,FALSE,"new"
"MPE103","imm","1","/isoluminant_stim/main_task/inanimate/inanimate-gastank.png","/isoluminant_stim/main_task/inanimate/inanimate-gastank.png",FALSE,FALSE,FALSE,49,2,1.15539176401217,FALSE,TRUE,"new"
"MPE103","imm","1","/isoluminant_stim/main_task/inanimate/inanimate-cap01a.png","/isoluminant_stim/main_task/inanimate/inanimate-cap01a.png",TRUE,FALSE,TRUE,50,2,0.805290813004831,TRUE,FALSE,"new"
"MPE103","imm","1","/isoluminant_stim/main_task/animate/animate-chinchilla1.png","/isoluminant_stim/main_task/animate/animate-chinchilla1.png",FALSE,FALSE,FALSE,51,1,0.969009376014583,FALSE,FALSE,"old"
"MPE103","imm","1","/isoluminant_stim/preexposure/medal02b.png","/isoluminant_stim/preexposure/medal02b.png",TRUE,FALSE,FALSE,52,2,0.742112039006315,TRUE,FALSE,"new"
"MPE103","imm","1","/isoluminant_stim/preexposure/pizza.png","/isoluminant_stim/preexposure/pizza.png",TRUE,FALSE,FALSE,53,2,0.810703030991135,TRUE,FALSE,"new"
"MPE103","imm","1","/isoluminant_stim/main_task/inanimate/inanimate-wetfloorsign.png","/isoluminant_stim/main_task/inanimate/inanimate-wetfloorsign.png",TRUE,FALSE,TRUE,54,1,0.956470334000187,TRUE,TRUE,"old"
"MPE103","imm","1","/isoluminant_stim/preexposure/pecan03b.png","/isoluminant_stim/preexposure/pecan03b.png",TRUE,FALSE,FALSE,55,2,0.879094366013305,TRUE,FALSE,"new"
"MPE103","imm","1","/isoluminant_stim/main_task/inanimate/inanimate-bun.png","/isoluminant_stim/main_task/inanimate/inanimate-bun.png",FALSE,FALSE,FALSE,56,2,0.833906616986496,FALSE,TRUE,"new"
"MPE103","imm","1","/isoluminant_stim/main_task/animate/animate-octopus.png","/isoluminant_stim/main_task/animate/animate-octopus.png",TRUE,FALSE,TRUE,57,2,0.868406225985382,TRUE,FALSE,"new"
"MPE103","imm","1","/isoluminant_stim/main_task/animate/animate-eel.png","/isoluminant_stim/main_task/animate/animate-eel.png",FALSE,FALSE,FALSE,58,2,0.903864267020254,FALSE,TRUE,"new"
"MPE103","imm","1","/isoluminant_stim/main_task/inanimate/inanimate-fortunecookie.png","/isoluminant_stim/main_task/inanimate/inanimate-fortunecookie.png",TRUE,FALSE,TRUE,59,1,0.881988134002313,TRUE,TRUE,"old"
"MPE103","imm","1","/isoluminant_stim/main_task/inanimate/inanimate-aquarium.png","/isoluminant_stim/main_task/inanimate/inanimate-aquarium.png",FALSE,FALSE,FALSE,60,2,0.813568593002856,FALSE,TRUE,"new"
"MPE103","imm","1","/isoluminant_stim/main_task/inanimate/inanimate-romainelettuce01a.png","/isoluminant_stim/main_task/inanimate/inanimate-romainelettuce01a.png",TRUE,FALSE,TRUE,61,1,0.802965107985074,TRUE,TRUE,"old"
"MPE103","imm","1","/isoluminant_stim/main_task/animate/animate-seagull.png","/isoluminant_stim/main_task/animate/animate-seagull.png",TRUE,FALSE,TRUE,62,2,1.01523519598413,TRUE,FALSE,"new"
"MPE103","imm","1","/isoluminant_stim/main_task/inanimate/inanimate-mushroom01.png","/isoluminant_stim/main_task/inanimate/inanimate-mushroom01.png",FALSE,FALSE,FALSE,63,2,0.814713222003775,FALSE,TRUE,"new"
"MPE103","imm","1","/isoluminant_stim/main_task/animate/animate-bull.png","/isoluminant_stim/main_task/animate/animate-bull.png",TRUE,FALSE,TRUE,64,1,1.01025010598823,TRUE,TRUE,"old"
"MPE103","imm","1","/isoluminant_stim/main_task/inanimate/inanimate-belt02c.png","/isoluminant_stim/main_task/inanimate/inanimate-belt02c.png",TRUE,FALSE,TRUE,65,2,0.868498961004661,TRUE,FALSE,"new"
"MPE103","imm","1","/isoluminant_stim/main_task/inanimate/inanimate-armchair01.png","/isoluminant_stim/main_task/inanimate/inanimate-armchair01.png",FALSE,FALSE,FALSE,66,2,0.765434237982845,FALSE,TRUE,"new"
"MPE103","imm","1","/isoluminant_stim/preexposure/motoroilbottle01.png","/isoluminant_stim/preexposure/motoroilbottle01.png",TRUE,FALSE,FALSE,67,2,0.675721344014164,TRUE,FALSE,"new"
"MPE103","imm","1","/isoluminant_stim/main_task/animate/animate-moth.png","/isoluminant_stim/main_task/animate/animate-moth.png",TRUE,FALSE,TRUE,68,2,1.31478128800518,TRUE,FALSE,"new"
"MPE103","imm","1","/isoluminant_stim/main_task/animate/animate-hedgehog.png","/isoluminant_stim/main_task/animate/animate-hedgehog.png",TRUE,FALSE,TRUE,69,1,0.716519281995716,TRUE,TRUE,"old"
"MPE103","imm","1","/isoluminant_stim/main_task/animate/animate-snake.png","/isoluminant_stim/main_task/animate/animate-snake.png",FALSE,FALSE,FALSE,70,2,1.41642911499366,FALSE,TRUE,"new"
"MPE103","imm","1","/isoluminant_stim/main_task/animate/animate-mantis.png","/isoluminant_stim/main_task/animate/animate-mantis.png",FALSE,FALSE,FALSE,71,1,0.787931627972284,FALSE,FALSE,"old"
"MPE103","imm","1","/isoluminant_stim/main_task/inanimate/inanimate-barn.png","/isoluminant_stim/main_task/inanimate/inanimate-barn.png",TRUE,FALSE,TRUE,72,2,0.738257459015585,TRUE,FALSE,"new"
"MPE103","imm","1","/isoluminant_stim/main_task/inanimate/inanimate-kiwi03.png","/isoluminant_stim/main_task/inanimate/inanimate-kiwi03.png",TRUE,FALSE,TRUE,73,1,0.716028123017168,TRUE,TRUE,"old"
"MPE103","imm","1","/isoluminant_stim/main_task/animate/animate-walrus1.png","/isoluminant_stim/main_task/animate/animate-walrus1.png",TRUE,FALSE,TRUE,74,1,1.01609914700384,TRUE,TRUE,"old"
"MPE103","imm","1","/isoluminant_stim/main_task/inanimate/inanimate-chiliflake.png","/isoluminant_stim/main_task/inanimate/inanimate-chiliflake.png",TRUE,FALSE,TRUE,75,2,0.849965540983249,TRUE,FALSE,"new"
"MPE103","imm","1","/isoluminant_stim/main_task/animate/animate-bumble bee.png","/isoluminant_stim/main_task/animate/animate-bumble bee.png",TRUE,FALSE,TRUE,76,2,1.08490987698315,TRUE,FALSE,"new"
"MPE103","imm","1","/isoluminant_stim/main_task/animate/animate-tortoise01.png","/isoluminant_stim/main_task/animate/animate-tortoise01.png",TRUE,FALSE,TRUE,77,1,0.853065886010882,TRUE,TRUE,"old"
"MPE103","imm","1","/isoluminant_stim/preexposure/mussel.png","/isoluminant_stim/preexposure/mussel.png",TRUE,FALSE,FALSE,78,2,0.774610316992039,TRUE,FALSE,"new"
"MPE103","imm","1","/isoluminant_stim/main_task/animate/animate-swan.png","/isoluminant_stim/main_task/animate/animate-swan.png",TRUE,FALSE,TRUE,79,2,0.964197819994297,TRUE,FALSE,"new"
"MPE103","imm","1","/isoluminant_stim/main_task/animate/animate-dromedary.png","/isoluminant_stim/main_task/animate/animate-dromedary.png",TRUE,FALSE,TRUE,80,1,1.30610434099799,TRUE,TRUE,"old"
"MPE103","imm","1","/isoluminant_stim/main_task/animate/animate-pufferfish.png","/isoluminant_stim/main_task/animate/animate-pufferfish.png",TRUE,FALSE,TRUE,81,2,0.867660734016681,TRUE,FALSE,"new"
"MPE103","imm","1","/isoluminant_stim/main_task/inanimate/inanimate-wafflemaker.png","/isoluminant_stim/main_task/inanimate/inanimate-wafflemaker.png",TRUE,FALSE,TRUE,82,2,0.953424449980957,TRUE,FALSE,"new"
"MPE103","imm","1","/isoluminant_stim/main_task/animate/animate-duck01.png","/isoluminant_stim/main_task/animate/animate-duck01.png",TRUE,FALSE,TRUE,83,1,1.25136983400444,TRUE,TRUE,"old"
"MPE103","imm","1","/isoluminant_stim/main_task/inanimate/inanimate-calendar.png","/isoluminant_stim/main_task/inanimate/inanimate-calendar.png",FALSE,FALSE,FALSE,84,2,0.816575236007338,FALSE,TRUE,"new"
"MPE103","imm","1","/isoluminant_stim/main_task/inanimate/inanimate-peach03.png","/isoluminant_stim/main_task/inanimate/inanimate-peach03.png",TRUE,FALSE,TRUE,85,1,0.938815445988439,TRUE,TRUE,"old"
"MPE103","imm","1","/isoluminant_stim/main_task/animate/animate-monarchbutterfly.png","/isoluminant_stim/main_task/animate/animate-monarchbutterfly.png",TRUE,FALSE,TRUE,86,2,0.830498391005676,TRUE,FALSE,"new"
"MPE103","imm","1","/isoluminant_stim/main_task/inanimate/inanimate-cantaloupe01.png","/isoluminant_stim/main_task/inanimate/inanimate-cantaloupe01.png",TRUE,FALSE,TRUE,87,2,1.00572564397589,TRUE,FALSE,"new"
"MPE103","imm","1","/isoluminant_stim/main_task/animate/animate-cougar.png","/isoluminant_stim/main_task/animate/animate-cougar.png",TRUE,FALSE,TRUE,88,1,0.923930935008684,TRUE,TRUE,"old"
"MPE103","imm","1","/isoluminant_stim/main_task/inanimate/inanimate-garlic01a.png","/isoluminant_stim/main_task/inanimate/inanimate-garlic01a.png",FALSE,FALSE,FALSE,89,2,0.78878196599544,FALSE,TRUE,"new"
"MPE103","imm","1","/isoluminant_stim/main_task/inanimate/inanimate-porsche.png","/isoluminant_stim/main_task/inanimate/inanimate-porsche.png",FALSE,FALSE,FALSE,90,2,0.821410678006941,FALSE,TRUE,"new"
"MPE103","imm","1","/isoluminant_stim/main_task/inanimate/inanimate-watermelon02b.png","/isoluminant_stim/main_task/inanimate/inanimate-watermelon02b.png",FALSE,FALSE,FALSE,91,2,0.86142237301101,FALSE,TRUE,"new"
"MPE103","imm","1","/isoluminant_stim/main_task/animate/animate-zebra.png","/isoluminant_stim/main_task/animate/animate-zebra.png",FALSE,FALSE,FALSE,92,2,0.778404247015715,FALSE,TRUE,"new"
"MPE103","imm","1","/isoluminant_stim/main_task/animate/animate-mosquito.png","/isoluminant_stim/main_task/animate/animate-mosquito.png",FALSE,FALSE,FALSE,93,2,0.875155410001753,FALSE,TRUE,"new"
"MPE103","imm","1","/isoluminant_stim/main_task/animate/animate-hoofed-bongo.png","/isoluminant_stim/main_task/animate/animate-hoofed-bongo.png",TRUE,FALSE,TRUE,94,2,0.488920314004645,TRUE,FALSE,"new"
"MPE103","imm","1","/isoluminant_stim/main_task/inanimate/inanimate-orange.png","/isoluminant_stim/main_task/inanimate/inanimate-orange.png",FALSE,FALSE,FALSE,95,2,0.711654457001714,FALSE,TRUE,"new"
"MPE103","imm","1","/isoluminant_stim/main_task/inanimate/inanimate-grape01.png","/isoluminant_stim/main_task/inanimate/inanimate-grape01.png",FALSE,FALSE,FALSE,96,2,0.688263234012993,FALSE,TRUE,"new"
"MPE103","imm","1","/isoluminant_stim/main_task/inanimate/inanimate-box01a.png","/isoluminant_stim/main_task/inanimate/inanimate-box01a.png",TRUE,FALSE,TRUE,97,2,0.59806140101864,TRUE,FALSE,"new"
"MPE103","imm","1","/isoluminant_stim/main_task/inanimate/inanimate-camera01a.png","/isoluminant_stim/main_task/inanimate/inanimate-camera01a.png",TRUE,FALSE,TRUE,98,1,1.0209002289921,TRUE,TRUE,"old"
"MPE103","imm","1","/isoluminant_stim/main_task/animate/animate-fly.png","/isoluminant_stim/main_task/animate/animate-fly.png",FALSE,FALSE,FALSE,99,2,1.24431730201468,FALSE,TRUE,"new"
"MPE103","imm","1","/isoluminant_stim/main_task/animate/animate-africanelephant.png","/isoluminant_stim/main_task/animate/animate-africanelephant.png",FALSE,FALSE,FALSE,100,NA,NA,FALSE,NA,NA
"MPE103","imm","1","/isoluminant_stim/preexposure/toyanimal04.png","/isoluminant_stim/preexposure/toyanimal04.png",TRUE,FALSE,FALSE,101,2,0.732535649003694,TRUE,FALSE,"new"
"MPE103","imm","1","/isoluminant_stim/main_task/animate/animate-pigeon.png","/isoluminant_stim/main_task/animate/animate-pigeon.png",TRUE,FALSE,TRUE,102,2,1.02310044699698,TRUE,FALSE,"new"
"MPE103","imm","1","/isoluminant_stim/main_task/animate/animate-hoofed-okapi.png","/isoluminant_stim/main_task/animate/animate-hoofed-okapi.png",FALSE,FALSE,FALSE,103,2,0.826126140978886,FALSE,TRUE,"new"
"MPE103","imm","1","/isoluminant_stim/main_task/animate/animate-sapsucker.png","/isoluminant_stim/main_task/animate/animate-sapsucker.png",TRUE,FALSE,TRUE,105,2,0.95301800800371,TRUE,FALSE,"new"
"MPE103","imm","1","/isoluminant_stim/main_task/inanimate/inanimate-tie01.png","/isoluminant_stim/main_task/inanimate/inanimate-tie01.png",TRUE,FALSE,TRUE,106,2,0.602726830984466,TRUE,FALSE,"new"
"MPE103","imm","1","/isoluminant_stim/preexposure/measuringtape01.png","/isoluminant_stim/preexposure/measuringtape01.png",TRUE,FALSE,FALSE,107,2,0.763496236002538,TRUE,FALSE,"new"
"MPE103","imm","1","/isoluminant_stim/preexposure/stuffedanimal05a.png","/isoluminant_stim/preexposure/stuffedanimal05a.png",TRUE,FALSE,FALSE,108,2,0.723473152989754,TRUE,FALSE,"new"
"MPE103","imm","1","/isoluminant_stim/main_task/animate/animate-seaturtle.png","/isoluminant_stim/main_task/animate/animate-seaturtle.png",TRUE,FALSE,TRUE,109,1,1.80585584099754,TRUE,TRUE,"old"
"MPE103","imm","1","/isoluminant_stim/main_task/animate/animate-cardinal.png","/isoluminant_stim/main_task/animate/animate-cardinal.png",FALSE,FALSE,FALSE,110,2,0.629911332012853,FALSE,TRUE,"new"
"MPE103","imm","1","/isoluminant_stim/main_task/animate/animate-hummingbird.png","/isoluminant_stim/main_task/animate/animate-hummingbird.png",TRUE,FALSE,TRUE,111,2,1.25215014099376,TRUE,FALSE,"new"
"MPE103","imm","1","/isoluminant_stim/main_task/inanimate/inanimate-gardenutilityvehicle.png","/isoluminant_stim/main_task/inanimate/inanimate-gardenutilityvehicle.png",TRUE,FALSE,TRUE,112,2,0.691681197989965,TRUE,FALSE,"new"
"MPE103","imm","1","/isoluminant_stim/main_task/inanimate/inanimate-icecubetray02a.png","/isoluminant_stim/main_task/inanimate/inanimate-icecubetray02a.png",TRUE,FALSE,TRUE,113,1,0.764428088004934,TRUE,TRUE,"old"
"MPE103","imm","1","/isoluminant_stim/main_task/inanimate/inanimate-binder03a.png","/isoluminant_stim/main_task/inanimate/inanimate-binder03a.png",FALSE,FALSE,FALSE,114,2,0.654858930996852,FALSE,TRUE,"new"
"MPE103","imm","1","/isoluminant_stim/main_task/inanimate/inanimate-bowl02c.png","/isoluminant_stim/main_task/inanimate/inanimate-bowl02c.png",TRUE,FALSE,TRUE,115,2,1.08217190601863,TRUE,FALSE,"new"
"MPE103","imm","1","/isoluminant_stim/main_task/animate/animate-bird-misc.png","/isoluminant_stim/main_task/animate/animate-bird-misc.png",TRUE,FALSE,TRUE,116,2,0.839219281973783,TRUE,FALSE,"new"
"MPE103","imm","1","/isoluminant_stim/main_task/animate/animate-yak.png","/isoluminant_stim/main_task/animate/animate-yak.png",TRUE,FALSE,TRUE,117,1,0.896571075019892,TRUE,TRUE,"old"
"MPE103","imm","1","/isoluminant_stim/main_task/animate/animate-manatee.png","/isoluminant_stim/main_task/animate/animate-manatee.png",FALSE,FALSE,FALSE,118,2,0.837244160997216,FALSE,TRUE,"new"
"MPE103","imm","1","/isoluminant_stim/main_task/animate/animate-jaguar.png","/isoluminant_stim/main_task/animate/animate-jaguar.png",FALSE,FALSE,FALSE,120,2,0.760939030005829,FALSE,TRUE,"new"
"MPE103","imm","1","/isoluminant_stim/main_task/animate/animate-saintbernard.png","/isoluminant_stim/main_task/animate/animate-saintbernard.png",FALSE,FALSE,FALSE,121,2,1.00315013198997,FALSE,TRUE,"new"
"MPE103","imm","1","/isoluminant_stim/main_task/inanimate/inanimate-pepper05b.png","/isoluminant_stim/main_task/inanimate/inanimate-pepper05b.png",FALSE,FALSE,FALSE,122,2,0.637894203013275,FALSE,TRUE,"new"
"MPE103","imm","1","/isoluminant_stim/preexposure/toydinosaur.png","/isoluminant_stim/preexposure/toydinosaur.png",TRUE,FALSE,FALSE,123,2,1.19955729800859,TRUE,FALSE,"new"
"MPE103","imm","1","/isoluminant_stim/main_task/inanimate/inanimate-fryingpan02a.png","/isoluminant_stim/main_task/inanimate/inanimate-fryingpan02a.png",FALSE,FALSE,FALSE,125,2,0.640460251015611,FALSE,TRUE,"new"
"MPE103","imm","1","/isoluminant_stim/main_task/animate/animate-greathornowl.png","/isoluminant_stim/main_task/animate/animate-greathornowl.png",TRUE,FALSE,TRUE,126,2,0.651375515997643,TRUE,FALSE,"new"
"MPE103","imm","1","/isoluminant_stim/main_task/animate/animate-jellyfish.png","/isoluminant_stim/main_task/animate/animate-jellyfish.png",TRUE,FALSE,TRUE,127,2,0.681683583010454,TRUE,FALSE,"new"
"MPE103","imm","1","/isoluminant_stim/preexposure/makiroll.png","/isoluminant_stim/preexposure/makiroll.png",TRUE,FALSE,FALSE,128,2,0.622489531990141,TRUE,FALSE,"new"
"MPE103","imm","1","/isoluminant_stim/preexposure/mask02a.png","/isoluminant_stim/preexposure/mask02a.png",TRUE,FALSE,FALSE,129,2,0.627309497998795,TRUE,FALSE,"new"
"MPE103","imm","1","/isoluminant_stim/main_task/inanimate/inanimate-footrest01.png","/isoluminant_stim/main_task/inanimate/inanimate-footrest01.png",FALSE,FALSE,FALSE,130,2,0.498560756997904,FALSE,TRUE,"new"
"MPE103","imm","1","/isoluminant_stim/main_task/inanimate/inanimate-toycar02a.png","/isoluminant_stim/main_task/inanimate/inanimate-toycar02a.png",TRUE,FALSE,TRUE,131,2,0.563097046018811,TRUE,FALSE,"new"
"MPE103","imm","1","/isoluminant_stim/main_task/animate/animate-ostrich.png","/isoluminant_stim/main_task/animate/animate-ostrich.png",FALSE,FALSE,FALSE,132,2,0.683083715994144,FALSE,TRUE,"new"
"MPE103","imm","1","/isoluminant_stim/main_task/animate/animate-cedarwaxwing.png","/isoluminant_stim/main_task/animate/animate-cedarwaxwing.png",FALSE,FALSE,FALSE,133,2,0.683702440990601,FALSE,TRUE,"new"
"MPE103","imm","1","/isoluminant_stim/main_task/animate/animate-mongoose.png","/isoluminant_stim/main_task/animate/animate-mongoose.png",FALSE,FALSE,FALSE,134,1,0.976012027997058,FALSE,FALSE,"old"
"MPE103","imm","1","/isoluminant_stim/main_task/animate/animate-lion.png","/isoluminant_stim/main_task/animate/animate-lion.png",FALSE,FALSE,FALSE,135,2,0.933647408004617,FALSE,TRUE,"new"
"MPE103","imm","1","/isoluminant_stim/main_task/animate/animate-siamesecat.png","/isoluminant_stim/main_task/animate/animate-siamesecat.png",FALSE,FALSE,FALSE,137,2,1.50813574198401,FALSE,TRUE,"new"
"MPE103","imm","1","/isoluminant_stim/main_task/animate/animate-dolphin.png","/isoluminant_stim/main_task/animate/animate-dolphin.png",FALSE,FALSE,FALSE,138,1,0.882325589016546,FALSE,FALSE,"old"
"MPE103","imm","1","/isoluminant_stim/main_task/inanimate/inanimate-broccoli01a.png","/isoluminant_stim/main_task/inanimate/inanimate-broccoli01a.png",FALSE,FALSE,FALSE,139,2,0.938221438002074,FALSE,TRUE,"new"
"MPE103","imm","1","/isoluminant_stim/main_task/inanimate/inanimate-almond.png","/isoluminant_stim/main_task/inanimate/inanimate-almond.png",TRUE,FALSE,TRUE,140,2,0.686699401994701,TRUE,FALSE,"new"
"MPE103","imm","1","/isoluminant_stim/main_task/animate/animate-parrot.png","/isoluminant_stim/main_task/animate/animate-parrot.png",TRUE,FALSE,TRUE,141,2,0.849225582001964,TRUE,FALSE,"new"
"MPE103","imm","1","/isoluminant_stim/main_task/inanimate/inanimate-bag.png","/isoluminant_stim/main_task/inanimate/inanimate-bag.png",FALSE,FALSE,FALSE,142,2,0.84166045798338,FALSE,TRUE,"new"
"MPE103","imm","1","/isoluminant_stim/preexposure/soap02a.png","/isoluminant_stim/preexposure/soap02a.png",TRUE,FALSE,FALSE,143,2,0.70365002399194,TRUE,FALSE,"new"
"MPE103","imm","1","/isoluminant_stim/main_task/animate/animate-tern.png","/isoluminant_stim/main_task/animate/animate-tern.png",FALSE,FALSE,FALSE,144,2,0.758552935003536,FALSE,TRUE,"new"
"MPE103","imm","1","/isoluminant_stim/main_task/animate/animate-caribou01.png","/isoluminant_stim/main_task/animate/animate-caribou01.png",FALSE,FALSE,FALSE,145,2,0.803733501001261,FALSE,TRUE,"new"
"MPE103","imm","1","/isoluminant_stim/main_task/inanimate/inanimate-raspberry.png","/isoluminant_stim/main_task/inanimate/inanimate-raspberry.png",FALSE,FALSE,FALSE,146,2,0.811921051004902,FALSE,TRUE,"new"
"MPE103","imm","1","/isoluminant_stim/main_task/inanimate/inanimate-mug01.png","/isoluminant_stim/main_task/inanimate/inanimate-mug01.png",FALSE,FALSE,FALSE,147,2,1.0073888360057,FALSE,TRUE,"new"
"MPE103","imm","1","/isoluminant_stim/preexposure/rockinghorse.png","/isoluminant_stim/preexposure/rockinghorse.png",TRUE,FALSE,FALSE,148,2,1.14198528297129,TRUE,FALSE,"new"
"MPE103","imm","1","/isoluminant_stim/main_task/animate/animate-fish-angelfish.png","/isoluminant_stim/main_task/animate/animate-fish-angelfish.png",TRUE,FALSE,TRUE,149,2,0.650651400996139,TRUE,FALSE,"new"
"MPE103","imm","1","/isoluminant_stim/main_task/animate/animate-bluejay.png","/isoluminant_stim/main_task/animate/animate-bluejay.png",FALSE,FALSE,FALSE,150,2,0.684840130998055,FALSE,TRUE,"new"
"MPE103","imm","1","/isoluminant_stim/main_task/inanimate/inanimate-brooch.png","/isoluminant_stim/main_task/inanimate/inanimate-brooch.png",TRUE,FALSE,TRUE,151,2,1.1128555739997,TRUE,FALSE,"new"
"MPE103","imm","1","/isoluminant_stim/main_task/inanimate/inanimate-drumset.png","/isoluminant_stim/main_task/inanimate/inanimate-drumset.png",FALSE,FALSE,FALSE,152,2,0.6705608869961,FALSE,TRUE,"new"
"MPE103","imm","1","/isoluminant_stim/main_task/animate/animate-raccoon.png","/isoluminant_stim/main_task/animate/animate-raccoon.png",FALSE,FALSE,FALSE,153,2,1.00202362297568,FALSE,TRUE,"new"
"MPE103","imm","1","/isoluminant_stim/main_task/inanimate/inanimate-hairband.png","/isoluminant_stim/main_task/inanimate/inanimate-hairband.png",FALSE,FALSE,FALSE,154,2,0.622367086994927,FALSE,TRUE,"new"
"MPE103","imm","1","/isoluminant_stim/main_task/animate/animate-rhinoceros.png","/isoluminant_stim/main_task/animate/animate-rhinoceros.png",TRUE,FALSE,TRUE,155,2,0.866327874013223,TRUE,FALSE,"new"
"MPE103","imm","1","/isoluminant_stim/main_task/animate/animate-scorpion.png","/isoluminant_stim/main_task/animate/animate-scorpion.png",TRUE,FALSE,TRUE,156,2,0.682452501001535,TRUE,FALSE,"new"
"MPE103","imm","1","/isoluminant_stim/main_task/animate/animate-toucan.png","/isoluminant_stim/main_task/animate/animate-toucan.png",TRUE,FALSE,TRUE,157,2,0.748263435001718,TRUE,FALSE,"new"
"MPE103","imm","1","/isoluminant_stim/preexposure/cocktailshrimp02.png","/isoluminant_stim/preexposure/cocktailshrimp02.png",TRUE,FALSE,FALSE,158,2,0.861411254998529,TRUE,FALSE,"new"
"MPE103","imm","1","/isoluminant_stim/main_task/inanimate/inanimate-hose.png","/isoluminant_stim/main_task/inanimate/inanimate-hose.png",TRUE,FALSE,TRUE,159,1,0.843368797999574,TRUE,TRUE,"old"
"MPE104","imm","1","/isoluminant_stim/main_task/animate/animate-sapsucker.png","/isoluminant_stim/main_task/animate/animate-sapsucker.png",FALSE,FALSE,FALSE,0,2,0.747948042999269,FALSE,TRUE,"new"
"MPE104","imm","1","/isoluminant_stim/main_task/animate/animate-turkey.png","/isoluminant_stim/main_task/animate/animate-turkey.png",TRUE,FALSE,TRUE,1,2,0.791152701000101,TRUE,FALSE,"new"
"MPE104","imm","1","/isoluminant_stim/main_task/animate/animate-turtle.png","/isoluminant_stim/main_task/animate/animate-turtle.png",FALSE,FALSE,FALSE,2,2,0.859985556000538,FALSE,TRUE,"new"
"MPE104","imm","1","/isoluminant_stim/main_task/inanimate/inanimate-yarn.png","/isoluminant_stim/main_task/inanimate/inanimate-yarn.png",FALSE,FALSE,FALSE,3,2,0.722021949000919,FALSE,TRUE,"new"
"MPE104","imm","1","/isoluminant_stim/main_task/animate/animate-jellyfish.png","/isoluminant_stim/main_task/animate/animate-jellyfish.png",FALSE,FALSE,FALSE,4,2,0.685386318000383,FALSE,TRUE,"new"
"MPE104","imm","1","/isoluminant_stim/main_task/animate/animate-waterbuffalo.png","/isoluminant_stim/main_task/animate/animate-waterbuffalo.png",FALSE,FALSE,FALSE,5,2,0.837193806000869,FALSE,TRUE,"new"
"MPE104","imm","1","/isoluminant_stim/main_task/inanimate/inanimate-hose.png","/isoluminant_stim/main_task/inanimate/inanimate-hose.png",FALSE,FALSE,FALSE,6,2,0.940622056999928,FALSE,TRUE,"new"
"MPE104","imm","1","/isoluminant_stim/main_task/animate/animate-hoofed-eland.png","/isoluminant_stim/main_task/animate/animate-hoofed-eland.png",TRUE,FALSE,TRUE,7,1,0.792314230000557,TRUE,TRUE,"old"
"MPE104","imm","1","/isoluminant_stim/main_task/animate/animate-duck.png","/isoluminant_stim/main_task/animate/animate-duck.png",TRUE,FALSE,TRUE,8,1,0.811468634999983,TRUE,TRUE,"old"
"MPE104","imm","1","/isoluminant_stim/main_task/animate/animate-caribou01.png","/isoluminant_stim/main_task/animate/animate-caribou01.png",TRUE,FALSE,TRUE,10,2,0.909012983000139,TRUE,FALSE,"new"
"MPE104","imm","1","/isoluminant_stim/main_task/inanimate/inanimate-drill01a.png","/isoluminant_stim/main_task/inanimate/inanimate-drill01a.png",TRUE,FALSE,TRUE,11,1,0.773879238000518,TRUE,TRUE,"old"
"MPE104","imm","1","/isoluminant_stim/main_task/animate/animate-hoofed-wildebeest.png","/isoluminant_stim/main_task/animate/animate-hoofed-wildebeest.png",FALSE,FALSE,FALSE,12,1,0.984294136000244,FALSE,FALSE,"old"
"MPE104","imm","1","/isoluminant_stim/main_task/animate/animate-chick.png","/isoluminant_stim/main_task/animate/animate-chick.png",FALSE,FALSE,FALSE,13,2,0.717350294999051,FALSE,TRUE,"new"
"MPE104","imm","1","/isoluminant_stim/main_task/inanimate/inanimate-bowl02c.png","/isoluminant_stim/main_task/inanimate/inanimate-bowl02c.png",TRUE,FALSE,TRUE,14,1,0.629804449999938,TRUE,TRUE,"old"
"MPE104","imm","1","/isoluminant_stim/main_task/inanimate/inanimate-belt02c.png","/isoluminant_stim/main_task/inanimate/inanimate-belt02c.png",TRUE,FALSE,TRUE,15,1,0.816076636001526,TRUE,TRUE,"old"
"MPE104","imm","1","/isoluminant_stim/preexposure/toyanimal05.png","/isoluminant_stim/preexposure/toyanimal05.png",TRUE,FALSE,FALSE,16,2,0.668519429000298,TRUE,FALSE,"new"
"MPE104","imm","1","/isoluminant_stim/main_task/animate/animate-pelican.png","/isoluminant_stim/main_task/animate/animate-pelican.png",TRUE,FALSE,TRUE,17,1,0.867689467000673,TRUE,TRUE,"old"
"MPE104","imm","1","/isoluminant_stim/main_task/inanimate/inanimate-accordion01.png","/isoluminant_stim/main_task/inanimate/inanimate-accordion01.png",FALSE,FALSE,FALSE,18,2,0.6942950069988,FALSE,TRUE,"new"
"MPE104","imm","1","/isoluminant_stim/main_task/animate/animate-pigeon.png","/isoluminant_stim/main_task/animate/animate-pigeon.png",TRUE,FALSE,TRUE,19,1,0.823486536000928,TRUE,TRUE,"old"
"MPE104","imm","1","/isoluminant_stim/main_task/animate/animate-lizard1.png","/isoluminant_stim/main_task/animate/animate-lizard1.png",FALSE,FALSE,FALSE,20,2,0.670458566999514,FALSE,TRUE,"new"
"MPE104","imm","1","/isoluminant_stim/main_task/animate/animate-horse.png","/isoluminant_stim/main_task/animate/animate-horse.png",TRUE,FALSE,TRUE,21,1,0.730553213999883,TRUE,TRUE,"old"
"MPE104","imm","1","/isoluminant_stim/main_task/animate/animate-lynx01.png","/isoluminant_stim/main_task/animate/animate-lynx01.png",TRUE,FALSE,TRUE,22,1,0.645645034999689,TRUE,TRUE,"old"
"MPE104","imm","1","/isoluminant_stim/preexposure/medal02b.png","/isoluminant_stim/preexposure/medal02b.png",TRUE,FALSE,FALSE,23,1,0.788156452999829,TRUE,TRUE,"old"
"MPE104","imm","1","/isoluminant_stim/main_task/inanimate/inanimate-peach03.png","/isoluminant_stim/main_task/inanimate/inanimate-peach03.png",FALSE,FALSE,FALSE,24,2,0.735643207999601,FALSE,TRUE,"new"
"MPE104","imm","1","/isoluminant_stim/preexposure/tarantula.png","/isoluminant_stim/preexposure/tarantula.png",TRUE,FALSE,FALSE,25,2,0.96468534899941,TRUE,FALSE,"new"
"MPE104","imm","1","/isoluminant_stim/main_task/inanimate/inanimate-broccoli01a.png","/isoluminant_stim/main_task/inanimate/inanimate-broccoli01a.png",TRUE,FALSE,TRUE,26,1,0.791282187999968,TRUE,TRUE,"old"
"MPE104","imm","1","/isoluminant_stim/main_task/inanimate/inanimate-pineapple01a.png","/isoluminant_stim/main_task/inanimate/inanimate-pineapple01a.png",TRUE,FALSE,TRUE,27,1,0.797581524999259,TRUE,TRUE,"old"
"MPE104","imm","1","/isoluminant_stim/main_task/inanimate/inanimate-icecubetray02a.png","/isoluminant_stim/main_task/inanimate/inanimate-icecubetray02a.png",FALSE,FALSE,FALSE,28,2,1.16879399400023,FALSE,TRUE,"new"
"MPE104","imm","1","/isoluminant_stim/main_task/inanimate/inanimate-apple01.png","/isoluminant_stim/main_task/inanimate/inanimate-apple01.png",TRUE,FALSE,TRUE,29,1,0.867674907000037,TRUE,TRUE,"old"
"MPE104","imm","1","/isoluminant_stim/preexposure/pecan03b.png","/isoluminant_stim/preexposure/pecan03b.png",TRUE,FALSE,FALSE,30,1,0.781271979998564,TRUE,TRUE,"old"
"MPE104","imm","1","/isoluminant_stim/main_task/animate/animate-whitetiger.png","/isoluminant_stim/main_task/animate/animate-whitetiger.png",TRUE,FALSE,TRUE,31,1,0.673658559000614,TRUE,TRUE,"old"
"MPE104","imm","1","/isoluminant_stim/main_task/animate/animate-greathornowl.png","/isoluminant_stim/main_task/animate/animate-greathornowl.png",TRUE,FALSE,TRUE,32,1,0.722983899999235,TRUE,TRUE,"old"
"MPE104","imm","1","/isoluminant_stim/main_task/inanimate/inanimate-chest01.png","/isoluminant_stim/main_task/inanimate/inanimate-chest01.png",FALSE,FALSE,FALSE,33,1,0.602000861999841,FALSE,FALSE,"old"
"MPE104","imm","1","/isoluminant_stim/preexposure/toyanimal01.png","/isoluminant_stim/preexposure/toyanimal01.png",TRUE,FALSE,FALSE,34,2,1.0829346290011,TRUE,FALSE,"new"
"MPE104","imm","1","/isoluminant_stim/main_task/animate/animate-hummingbird.png","/isoluminant_stim/main_task/animate/animate-hummingbird.png",TRUE,FALSE,TRUE,36,1,0.692114593999577,TRUE,TRUE,"old"
"MPE104","imm","1","/isoluminant_stim/main_task/animate/animate-bull.png","/isoluminant_stim/main_task/animate/animate-bull.png",FALSE,FALSE,FALSE,37,2,0.905669177000164,FALSE,TRUE,"new"
"MPE104","imm","1","/isoluminant_stim/preexposure/soap02a.png","/isoluminant_stim/preexposure/soap02a.png",TRUE,FALSE,FALSE,38,1,0.989777799999501,TRUE,TRUE,"old"
"MPE104","imm","1","/isoluminant_stim/main_task/animate/animate-armadillo.png","/isoluminant_stim/main_task/animate/animate-armadillo.png",FALSE,FALSE,FALSE,39,2,0.829385950999495,FALSE,TRUE,"new"
"MPE104","imm","1","/isoluminant_stim/main_task/animate/animate-hoofed-mountaingoat1.png","/isoluminant_stim/main_task/animate/animate-hoofed-mountaingoat1.png",FALSE,FALSE,FALSE,40,2,1.00862389699978,FALSE,TRUE,"new"
"MPE104","imm","1","/isoluminant_stim/main_task/inanimate/inanimate-cap01a.png","/isoluminant_stim/main_task/inanimate/inanimate-cap01a.png",FALSE,FALSE,FALSE,41,2,0.663207887999306,FALSE,TRUE,"new"
"MPE104","imm","1","/isoluminant_stim/main_task/animate/animate-insect-cricket.png","/isoluminant_stim/main_task/animate/animate-insect-cricket.png",TRUE,FALSE,TRUE,42,1,0.666320566999275,TRUE,TRUE,"old"
"MPE104","imm","1","/isoluminant_stim/main_task/animate/animate-toad.png","/isoluminant_stim/main_task/animate/animate-toad.png",TRUE,FALSE,TRUE,43,1,0.625994899999569,TRUE,TRUE,"old"
"MPE104","imm","1","/isoluminant_stim/preexposure/pot01.png","/isoluminant_stim/preexposure/pot01.png",TRUE,FALSE,FALSE,44,2,0.651181936000285,TRUE,FALSE,"new"
"MPE104","imm","1","/isoluminant_stim/main_task/animate/animate-hawk1.png","/isoluminant_stim/main_task/animate/animate-hawk1.png",TRUE,FALSE,TRUE,45,2,0.862768684999537,TRUE,FALSE,"new"
"MPE104","imm","1","/isoluminant_stim/preexposure/cocktailshrimp02.png","/isoluminant_stim/preexposure/cocktailshrimp02.png",TRUE,FALSE,FALSE,46,1,0.697946518999743,TRUE,TRUE,"old"
"MPE104","imm","1","/isoluminant_stim/preexposure/rockinghorse.png","/isoluminant_stim/preexposure/rockinghorse.png",TRUE,FALSE,FALSE,47,2,0.762593022000146,TRUE,FALSE,"new"
"MPE104","imm","1","/isoluminant_stim/preexposure/footballhelmet.png","/isoluminant_stim/preexposure/footballhelmet.png",TRUE,FALSE,FALSE,48,2,0.828761538001345,TRUE,FALSE,"new"
"MPE104","imm","1","/isoluminant_stim/main_task/inanimate/inanimate-exitsign.png","/isoluminant_stim/main_task/inanimate/inanimate-exitsign.png",TRUE,FALSE,TRUE,49,1,0.686533534999398,TRUE,TRUE,"old"
"MPE104","imm","1","/isoluminant_stim/main_task/inanimate/inanimate-arugula.png","/isoluminant_stim/main_task/inanimate/inanimate-arugula.png",TRUE,FALSE,TRUE,50,1,0.735044991000905,TRUE,TRUE,"old"
"MPE104","imm","1","/isoluminant_stim/main_task/animate/animate-seal.png","/isoluminant_stim/main_task/animate/animate-seal.png",TRUE,FALSE,TRUE,52,1,1.01173407100032,TRUE,TRUE,"old"
"MPE104","imm","1","/isoluminant_stim/main_task/inanimate/inanimate-tomato02.png","/isoluminant_stim/main_task/inanimate/inanimate-tomato02.png",FALSE,FALSE,FALSE,54,2,0.782327929999155,FALSE,TRUE,"new"
"MPE104","imm","1","/isoluminant_stim/main_task/inanimate/inanimate-footrest01.png","/isoluminant_stim/main_task/inanimate/inanimate-footrest01.png",FALSE,FALSE,FALSE,55,2,0.885464877999766,FALSE,TRUE,"new"
"MPE104","imm","1","/isoluminant_stim/preexposure/pokerchips.png","/isoluminant_stim/preexposure/pokerchips.png",TRUE,FALSE,FALSE,56,1,0.822401673000059,TRUE,TRUE,"old"
"MPE104","imm","1","/isoluminant_stim/main_task/inanimate/inanimate-jokercard.png","/isoluminant_stim/main_task/inanimate/inanimate-jokercard.png",TRUE,FALSE,TRUE,57,1,0.761210422000659,TRUE,TRUE,"old"
"MPE104","imm","1","/isoluminant_stim/main_task/inanimate/inanimate-camera01a.png","/isoluminant_stim/main_task/inanimate/inanimate-camera01a.png",TRUE,FALSE,TRUE,58,1,0.805254109000089,TRUE,TRUE,"old"
"MPE104","imm","1","/isoluminant_stim/main_task/animate/animate-platypus.png","/isoluminant_stim/main_task/animate/animate-platypus.png",FALSE,FALSE,FALSE,59,2,0.92599943300047,FALSE,TRUE,"new"
"MPE104","imm","1","/isoluminant_stim/preexposure/cookie01.png","/isoluminant_stim/preexposure/cookie01.png",TRUE,FALSE,FALSE,60,2,0.645941868000591,TRUE,FALSE,"new"
"MPE104","imm","1","/isoluminant_stim/main_task/inanimate/inanimate-cashregister01.png","/isoluminant_stim/main_task/inanimate/inanimate-cashregister01.png",FALSE,FALSE,FALSE,61,2,0.676104108999425,FALSE,TRUE,"new"
"MPE104","imm","1","/isoluminant_stim/main_task/animate/animate-antelope.png","/isoluminant_stim/main_task/animate/animate-antelope.png",FALSE,FALSE,FALSE,62,2,0.782107259999975,FALSE,TRUE,"new"
"MPE104","imm","1","/isoluminant_stim/main_task/inanimate/inanimate-bottlecap.png","/isoluminant_stim/main_task/inanimate/inanimate-bottlecap.png",FALSE,FALSE,FALSE,63,2,0.657509147000383,FALSE,TRUE,"new"
"MPE104","imm","1","/isoluminant_stim/main_task/inanimate/inanimate-avocado.png","/isoluminant_stim/main_task/inanimate/inanimate-avocado.png",FALSE,FALSE,FALSE,64,2,0.645449294999707,FALSE,TRUE,"new"
